"subj","current_staircase","duration_test","duration_ref","contrast_test","contrast_ref","stimulus_type","reference_type","stimulus_filename","reference_filename","ref_test_order","RT","resp","updated_threshold","updated_slope","updated_lapse","updated_guess","task","trials","group_id","energy","E","T","D","Ldu","Len"
"01",4,2924,5000,62,"050",0,1,"C:\Users\ULB-CO3\Documents\Pietro\bloch_law_faces\final\neutral_Rafd090_31_Caucasian_female_neutral_frontal_062.tiff","C:\Users\ULB-CO3\Documents\Pietro\bloch_law_faces\final\angry_Rafd090_14_Caucasian_female_angry_frontal_050.tiff",1,0.3280886,0,61.8555557149601,0.0448328002144274,0.0489897122121517,0.0935076655556838,"faces",50,"F_01_split_by_duration_test.2924",181288,-0.469393699433027,1.02065635346229,-0.792581686348446,7.98070782086967,12.1078422059148
"01",5,5268,5000,42,"050",0,0,"C:\Users\ULB-CO3\Documents\Pietro\bloch_law_faces\final\neutral_Rafd090_28_Caucasian_male_neutral_frontal_042.tiff","C:\Users\ULB-CO3\Documents\Pietro\bloch_law_faces\final\neutral_Rafd090_10_Caucasian_male_neutral_frontal_050.tiff",0,0.4330381,0,42.4674534170389,0.0242787499491772,0.0598500100640458,0.0795638260452743,"faces",50,"F_01_split_by_duration_test.5268",221256,-0.362014029749731,0.349831297569537,-0.719066603216284,8.56940606286317,12.3070756811465
"01",6,9491,5000,26,"050",0,1,"C:\Users\ULB-CO3\Documents\Pietro\bloch_law_faces\final\neutral_Rafd090_04_Caucasian_female_neutral_frontal_026.tiff","C:\Users\ULB-CO3\Documents\Pietro\bloch_law_faces\final\angry_Rafd090_03_Caucasian_male_angry_frontal_050.tiff",0,0.52205,1,26.8218894897376,0.0269394392752892,0.0462319123466363,0.068521602458437,"faces",50,"F_01_split_by_duration_test.9491",246766,-0.29347781643856,-0.191502564545004,-0.586620273836114,9.15809926013049,12.416195798152
"01",7,17100,5000,16,"050",1,0,"C:\Users\ULB-CO3\Documents\Pietro\bloch_law_faces\final\angry_Rafd090_26_Caucasian_female_angry_frontal_016.tiff","C:\Users\ULB-CO3\Documents\Pietro\bloch_law_faces\final\neutral_Rafd090_18_Caucasian_female_neutral_frontal_050.tiff",1,0.2750657,0,16.524498134002,0.027671664988558,0.0553319894507325,0.0583239205938016,"faces",50,"F_01_split_by_duration_test.17100",273600,-0.221384490370666,-0.547790561462655,-0.347978521467249,9.74683374249075,12.5194224647305
"01",8,30808,5000,9,"050",0,0,"C:\Users\ULB-CO3\Documents\Pietro\bloch_law_faces\final\neutral_Rafd090_31_Caucasian_female_neutral_frontal_009.tiff","C:\Users\ULB-CO3\Documents\Pietro\bloch_law_faces\final\neutral_Rafd090_09_Caucasian_male_neutral_frontal_050.tiff",0,0.1460951,1,9.13060490406682,0.047910056063242,0.0872331425431072,0.0764997835293318,"faces",50,"F_01_split_by_duration_test.30808",277272,-0.211519144416976,-0.803618014970991,0.0819467172595741,10.3355296754947,12.532754252831
"01",9,55505,5000,10,"050",1,1,"C:\Users\ULB-CO3\Documents\Pietro\bloch_law_faces\final\angry_Rafd090_09_Caucasian_male_angry_frontal_010.tiff","C:\Users\ULB-CO3\Documents\Pietro\bloch_law_faces\final\angry_Rafd090_10_Caucasian_male_angry_frontal_050.tiff",0,0.1780341,1,9.67948351134248,0.0266614072583883,0.0798751614424555,0.0648953803698414,"faces",50,"F_01_split_by_duration_test.55505",555050,0.534770634538354,-0.784626908118645,0.856520952803516,10.9242283857667,13.2268134787608
"01",10,100000,5000,7,"050",0,1,"C:\Users\ULB-CO3\Documents\Pietro\bloch_law_faces\final\neutral_Rafd090_26_Caucasian_female_neutral_frontal_007.tiff","C:\Users\ULB-CO3\Documents\Pietro\bloch_law_faces\final\angry_Rafd090_26_Caucasian_female_angry_frontal_050.tiff",0,0.3110518,0,7.90226599032308,0.0290289750539689,0.0436468945868014,0.0679397465036879,"faces",50,"F_01_split_by_duration_test.100000",700000,0.924199255449928,-0.846118333352112,2.25202164562158,11.5129254649702,13.4588356140255
"02",4,2924,5000,79,"050",0,0,"C:\Users\ULB-CO3\Documents\Pietro\bloch_law_faces\final\neutral_Rafd090_16_Caucasian_female_neutral_frontal_079.tiff","C:\Users\ULB-CO3\Documents\Pietro\bloch_law_faces\final\neutral_Rafd090_04_Caucasian_female_neutral_frontal_050.tiff",1,0.2220527,1,79.1847958911188,0.0457522029492696,0.0483629217915745,0.0946745657374773,"faces",50,"F_02_split_by_duration_test.2924",230996,-0.335846145874748,1.62024512863586,-0.792581686348446,7.98070782086967,12.3501556733367
"02",5,5268,5000,56,"050",1,1,"C:\Users\ULB-CO3\Documents\Pietro\bloch_law_faces\final\angry_Rafd090_15_Caucasian_male_angry_frontal_056.tiff","C:\Users\ULB-CO3\Documents\Pietro\bloch_law_faces\final\angry_Rafd090_02_Caucasian_female_angry_frontal_050.tiff",0,0.4070864,0,55.9993796564323,0.0418386712576839,0.0783449098955599,0.0463377444480163,"faces",50,"F_02_split_by_duration_test.5268",295008,-0.163868878666803,0.818033653653193,-0.719066603216284,8.56940606286317,12.5947577535983
"02",6,9491,5000,27,"050",1,0,"C:\Users\ULB-CO3\Documents\Pietro\bloch_law_faces\final\angry_Rafd090_16_Caucasian_female_angry_frontal_027.tiff","C:\Users\ULB-CO3\Documents\Pietro\bloch_law_faces\final\neutral_Rafd090_15_Caucasian_male_neutral_frontal_050.tiff",0,0.3640403,1,26.2924808873022,0.0249237060483546,0.0635727553587978,0.0534947881726691,"faces",50,"F_02_split_by_duration_test.9491",256257,-0.267978906186254,-0.209820012527363,-0.586620273836114,9.15809926013049,12.4539361261348
"02",7,17100,5000,15,"050",0,1,"C:\Users\ULB-CO3\Documents\Pietro\bloch_law_faces\final\neutral_Rafd090_02_Caucasian_female_neutral_frontal_015.tiff","C:\Users\ULB-CO3\Documents\Pietro\bloch_law_faces\final\angry_Rafd090_27_Caucasian_female_angry_frontal_050.tiff",0,0.179154,1,15.0571607732424,0.0483974687037734,0.0855066656681131,0.0753242384591003,"faces",50,"F_02_split_by_duration_test.17100",256500,-0.267326052409906,-0.598560185633177,-0.347978521467249,9.74683374249075,12.454883943593
"02",8,30808,5000,12,"050",0,0,"C:\Users\ULB-CO3\Documents\Pietro\bloch_law_faces\final\neutral_Rafd090_21_Caucasian_male_neutral_frontal_012.tiff","C:\Users\ULB-CO3\Documents\Pietro\bloch_law_faces\final\neutral_Rafd090_05_Caucasian_male_neutral_frontal_050.tiff",1,0.3010818,0,11.1599017318325,0.0247336490098352,0.0706141405277589,0.0514614228633322,"faces",50,"F_02_split_by_duration_test.30808",369696,0.0367909684435362,-0.733404688416857,0.0819467172595741,10.3355296754947,12.8204363252827
"02",9,55505,5000,7,"050",1,0,"C:\Users\ULB-CO3\Documents\Pietro\bloch_law_faces\final\angry_Rafd090_10_Caucasian_male_angry_frontal_007.tiff","C:\Users\ULB-CO3\Documents\Pietro\bloch_law_faces\final\neutral_Rafd090_15_Caucasian_male_neutral_frontal_050.tiff",1,0.6910699,1,7.97595553389004,0.0277846862987376,0.0452121496850421,0.0748926816902035,"faces",50,"F_02_split_by_duration_test.55505",388535,0.0874045992772936,-0.843568687624932,0.856520952803516,10.9242283857667,12.8701385348221
"02",10,100000,5000,9,"050",1,0,"C:\Users\ULB-CO3\Documents\Pietro\bloch_law_faces\final\angry_Rafd090_07_Caucasian_male_angry_frontal_009.tiff","C:\Users\ULB-CO3\Documents\Pietro\bloch_law_faces\final\neutral_Rafd090_16_Caucasian_female_neutral_frontal_050.tiff",1,0.6260716,0,8.52211436541805,0.0382530961838381,0.0564041716897466,0.0907342876811355,"faces",50,"F_02_split_by_duration_test.100000",900000,1.4615274664352,-0.824671684552827,2.25202164562158,11.5129254649702,13.7101500423064
"03",4,2924,5000,81,"050",0,0,"C:\Users\ULB-CO3\Documents\Pietro\bloch_law_faces\final\neutral_Rafd090_03_Caucasian_male_neutral_frontal_081.tiff","C:\Users\ULB-CO3\Documents\Pietro\bloch_law_faces\final\neutral_Rafd090_16_Caucasian_female_neutral_frontal_050.tiff",0,0.2721302,0,80.9758324135973,0.0264472944312577,0.07564957575293,0.0688190956125304,"faces",50,"F_03_split_by_duration_test.2924",236844,-0.320134668985539,1.68221468897939,-0.792581686348446,7.98070782086967,12.3751569755421
"03",5,5268,5000,48,"050",0,1,"C:\Users\ULB-CO3\Documents\Pietro\bloch_law_faces\final\neutral_Rafd090_18_Caucasian_female_neutral_frontal_048.tiff","C:\Users\ULB-CO3\Documents\Pietro\bloch_law_faces\final\angry_Rafd090_18_Caucasian_female_angry_frontal_050.tiff",0,0.2350521,0,48.4040265406547,0.0249100512705101,0.0622324822841938,0.0705632472880312,"faces",50,"F_03_split_by_duration_test.5268",252864,-0.277094679285619,0.555235722214437,-0.719066603216284,8.56940606286317,12.4406070737711
"03",6,9491,5000,29,"050",0,1,"C:\Users\ULB-CO3\Documents\Pietro\bloch_law_faces\final\neutral_Rafd090_02_Caucasian_female_neutral_frontal_029.tiff","C:\Users\ULB-CO3\Documents\Pietro\bloch_law_faces\final\angry_Rafd090_09_Caucasian_male_angry_frontal_050.tiff",1,0.3410985,1,29.7825581794407,0.0315486718871683,0.051386000365247,0.0849887214348861,"faces",50,"F_03_split_by_duration_test.9491",275239,-0.216981085681642,-0.0890639293071992,-0.586620273836114,9.15809926013049,12.525395090117
"03",7,17100,5000,15,"050",0,1,"C:\Users\ULB-CO3\Documents\Pietro\bloch_law_faces\final\neutral_Rafd090_08_Caucasian_female_neutral_frontal_015.tiff","C:\Users\ULB-CO3\Documents\Pietro\bloch_law_faces\final\angry_Rafd090_31_Caucasian_female_angry_frontal_050.tiff",0,0.3360489,1,15.9386069999884,0.0287117927445038,0.0451387947899633,0.0647499543630568,"faces",50,"F_03_split_by_duration_test.17100",256500,-0.267326052409906,-0.568062295471604,-0.347978521467249,9.74683374249075,12.454883943593
"03",8,30808,5000,10,"050",0,0,"C:\Users\ULB-CO3\Documents\Pietro\bloch_law_faces\final\neutral_Rafd090_14_Caucasian_female_neutral_frontal_010.tiff","C:\Users\ULB-CO3\Documents\Pietro\bloch_law_faces\final\neutral_Rafd090_15_Caucasian_male_neutral_frontal_050.tiff",1,0.1770689,1,10.9984821285724,0.0514435563669451,0.0401329898911078,0.0551738878460518,"faces",50,"F_03_split_by_duration_test.30808",308080,-0.128749106796806,-0.738989779351247,0.0819467172595741,10.3355296754947,12.6381147684888
"03",9,55505,5000,8,"050",1,0,"C:\Users\ULB-CO3\Documents\Pietro\bloch_law_faces\final\angry_Rafd090_20_Caucasian_male_angry_frontal_008.tiff","C:\Users\ULB-CO3\Documents\Pietro\bloch_law_faces\final\neutral_Rafd090_21_Caucasian_male_neutral_frontal_050.tiff",1,0.3131093,1,8.9896856982715,0.0328625841918068,0.0431890026952373,0.0638538767106989,"faces",50,"F_03_split_by_duration_test.55505",444040,0.23652661103098,-0.808493795625096,0.856520952803516,10.9242283857667,13.0036699274466
"03",10,100000,5000,9,"050",0,0,"C:\Users\ULB-CO3\Documents\Pietro\bloch_law_faces\final\neutral_Rafd090_16_Caucasian_female_neutral_frontal_009.tiff","C:\Users\ULB-CO3\Documents\Pietro\bloch_law_faces\final\neutral_Rafd090_27_Caucasian_female_neutral_frontal_050.tiff",1,0.3231237,0,8.00045751882602,0.0554218313028405,0.0454781715873413,0.0474883825508731,"faces",50,"F_03_split_by_duration_test.100000",900000,1.4615274664352,-0.842720923095862,2.25202164562158,11.5129254649702,13.7101500423064
"04",1,500,5000,3,"050",1,0,"C:\Users\ULB-CO3\Documents\Pietro\bloch_law_faces\final\angry_Rafd090_19_Caucasian_female_angry_frontal_003.tiff","C:\Users\ULB-CO3\Documents\Pietro\bloch_law_faces\final\neutral_Rafd090_12_Caucasian_female_neutral_frontal_050.tiff",0,0.0271469,1,3.69102303621884,0.0209764063404496,0.0537563313119535,0.0702510044690067,"faces",50,"F_04_split_by_duration_test.500",1500,-0.952419521416125,-0.991826626337951,-0.868605816686483,6.21460809842219,7.3132203870903
"04",2,901,5000,2,"050",1,1,"C:\Users\ULB-CO3\Documents\Pietro\bloch_law_faces\final\angry_Rafd090_07_Caucasian_male_angry_frontal_002.tiff","C:\Users\ULB-CO3\Documents\Pietro\bloch_law_faces\final\angry_Rafd090_28_Caucasian_male_angry_frontal_050.tiff",0,0.0011459,0,1.2995280069176,0.0232858387806515,0.0777524747231136,0.0571061080178132,"faces",50,"F_04_split_by_duration_test.901",1802,-0.951608155817537,-1.07457194932246,-0.856029217567031,6.80350525760834,7.49665243816828
"04",3,1623,5000,18,"050",0,1,"C:\Users\ULB-CO3\Documents\Pietro\bloch_law_faces\final\neutral_Rafd090_24_Caucasian_male_neutral_frontal_018.tiff","C:\Users\ULB-CO3\Documents\Pietro\bloch_law_faces\final\angry_Rafd090_18_Caucasian_female_angry_frontal_050.tiff",1,0.2630586,1,18.6467994940971,0.0237913768895872,0.0542474014391382,0.0649263139447938,"faces",50,"F_04_split_by_duration_test.1623",29214,-0.877961951219896,-0.474359293841394,-0.833385066534001,7.39203156751459,10.2824033254108
"04",4,2924,5000,45,"050",0,1,"C:\Users\ULB-CO3\Documents\Pietro\bloch_law_faces\final\neutral_Rafd090_04_Caucasian_female_neutral_frontal_045.tiff","C:\Users\ULB-CO3\Documents\Pietro\bloch_law_faces\final\angry_Rafd090_02_Caucasian_female_angry_frontal_050.tiff",0,0.0011125,1,44.3911037642578,0.0245320742210171,0.0630995956019508,0.0562763499631864,"faces",50,"F_04_split_by_duration_test.2924",131580,-0.602941252991306,0.416389273789292,-0.792581686348446,7.98070782086967,11.78737031064
"04",5,5268,5000,18,"050",0,0,"C:\Users\ULB-CO3\Documents\Pietro\bloch_law_faces\final\neutral_Rafd090_09_Caucasian_male_neutral_frontal_018.tiff","C:\Users\ULB-CO3\Documents\Pietro\bloch_law_faces\final\neutral_Rafd090_03_Caucasian_male_neutral_frontal_050.tiff",0,0.5730818,0,17.3342436894944,0.0276999241550071,0.0565927747107109,0.0824703913516344,"faces",50,"F_04_split_by_duration_test.5268",94824,-0.701691431606178,-0.51977350238306,-0.719066603216284,8.56940606286317,11.4597778207593
"04",6,9491,5000,52,"050",1,0,"C:\Users\ULB-CO3\Documents\Pietro\bloch_law_faces\final\angry_Rafd090_07_Caucasian_male_angry_frontal_052.tiff","C:\Users\ULB-CO3\Documents\Pietro\bloch_law_faces\final\neutral_Rafd090_23_Caucasian_male_neutral_frontal_050.tiff",0,0.001137,1,52.6293509318684,0.0555072131674469,0.0948672691835102,0.0469080757556973,"faces",50,"F_04_split_by_duration_test.9491",493532,0.369493850121395,0.701431230539398,-0.586620273836114,9.15809926013049,13.1093429787119
"04",7,17100,5000,86,"050",1,1,"C:\Users\ULB-CO3\Documents\Pietro\bloch_law_faces\final\angry_Rafd090_08_Caucasian_female_angry_frontal_086.tiff","C:\Users\ULB-CO3\Documents\Pietro\bloch_law_faces\final\angry_Rafd090_12_Caucasian_female_angry_frontal_050.tiff",1,1.37219,0,85.2071907030929,0.0297321847502532,0.0658495930135518,0.0463743912461709,"faces",50,"F_04_split_by_duration_test.17100",1470600,2.99452485237617,1.82861896916299,-0.347978521467249,9.74683374249075,14.2011810387443
"04",8,30808,5000,96,"050",0,1,"C:\Users\ULB-CO3\Documents\Pietro\bloch_law_faces\final\neutral_Rafd090_08_Caucasian_female_neutral_frontal_096.tiff","C:\Users\ULB-CO3\Documents\Pietro\bloch_law_faces\final\angry_Rafd090_07_Caucasian_male_angry_frontal_050.tiff",0,0.4330396,0,96.2854892196502,0.0226550139947225,0.0688390644111221,0.0516258930922105,"faces",50,"F_04_split_by_duration_test.30808",2957568,6.98947412853789,2.21192622158877,0.0819467172595741,10.3355296754947,14.8998778669626
"04",9,55505,5000,8,"050",0,0,"C:\Users\ULB-CO3\Documents\Pietro\bloch_law_faces\final\neutral_Rafd090_04_Caucasian_female_neutral_frontal_008.tiff","C:\Users\ULB-CO3\Documents\Pietro\bloch_law_faces\final\neutral_Rafd090_27_Caucasian_female_neutral_frontal_050.tiff",0,0.5161298,1,7.50966477301678,0.0206673465296578,0.0614909581990309,0.0655110454312401,"faces",50,"F_04_split_by_duration_test.55505",444040,0.23652661103098,-0.85970226897903,0.856520952803516,10.9242283857667,13.0036699274466
"04",10,100000,5000,26,"050",0,0,"C:\Users\ULB-CO3\Documents\Pietro\bloch_law_faces\final\neutral_Rafd090_16_Caucasian_female_neutral_frontal_026.tiff","C:\Users\ULB-CO3\Documents\Pietro\bloch_law_faces\final\neutral_Rafd090_02_Caucasian_female_neutral_frontal_050.tiff",0,0.472042,0,25.1871904974525,0.0270386854237078,0.0648913522600601,0.0763173693385736,"faces",50,"F_04_split_by_duration_test.100000",2600000,6.02881725980999,-0.248062872821542,2.25202164562158,11.5129254649702,14.7710220029917
"07",4,2924,5000,80,"050",1,0,"C:\Users\ULB-CO3\Documents\Pietro\bloch_law_faces\final\angry_Rafd090_05_Caucasian_male_angry_frontal_080.tiff","C:\Users\ULB-CO3\Documents\Pietro\bloch_law_faces\final\neutral_Rafd090_19_Caucasian_female_neutral_frontal_050.tiff",1,0.3200395,1,80.8412041088895,0.0309291193559447,0.0674343848239959,0.0727003394161149,"faces",50,"F_07_split_by_duration_test.2924",233920,-0.327990407430143,1.67755657243748,-0.792581686348446,7.98070782086967,12.3627344555436
"07",5,5268,5000,43,"050",0,0,"C:\Users\ULB-CO3\Documents\Pietro\bloch_law_faces\final\neutral_Rafd090_05_Caucasian_male_neutral_frontal_043.tiff","C:\Users\ULB-CO3\Documents\Pietro\bloch_law_faces\final\neutral_Rafd090_07_Caucasian_male_neutral_frontal_050.tiff",0,0.4710422,0,42.2645435514555,0.0302286957894888,0.0577245560501056,0.0797093011627396,"faces",50,"F_07_split_by_duration_test.5268",226524,-0.347860804672379,0.342810650585651,-0.719066603216284,8.56940606286317,12.3306061785567
"07",6,9491,5000,25,"050",1,1,"C:\Users\ULB-CO3\Documents\Pietro\bloch_law_faces\final\angry_Rafd090_27_Caucasian_female_angry_frontal_025.tiff","C:\Users\ULB-CO3\Documents\Pietro\bloch_law_faces\final\angry_Rafd090_03_Caucasian_male_angry_frontal_050.tiff",0,0.3370412,0,24.4516926048072,0.0370071009810762,0.077363210071816,0.0855030745123621,"faces",50,"F_07_split_by_duration_test.9491",237275,-0.318976726690865,-0.273510975341389,-0.586620273836114,9.15809926013049,12.3769750849987
"07",7,17100,5000,14,"050",1,0,"C:\Users\ULB-CO3\Documents\Pietro\bloch_law_faces\final\angry_Rafd090_15_Caucasian_male_angry_frontal_014.tiff","C:\Users\ULB-CO3\Documents\Pietro\bloch_law_faces\final\neutral_Rafd090_23_Caucasian_male_neutral_frontal_050.tiff",0,0.3800436,0,14.8252710793173,0.0307982831115032,0.0674833177909094,0.0819375994692535,"faces",50,"F_07_split_by_duration_test.17100",239400,-0.313267614449147,-0.606583529769593,-0.347978521467249,9.74683374249075,12.385891072106
"07",8,30808,5000,12,"050",0,0,"C:\Users\ULB-CO3\Documents\Pietro\bloch_law_faces\final\neutral_Rafd090_14_Caucasian_female_neutral_frontal_012.tiff","C:\Users\ULB-CO3\Documents\Pietro\bloch_law_faces\final\neutral_Rafd090_12_Caucasian_female_neutral_frontal_050.tiff",1,0.4950444,0,11.2863759014496,0.0255485253134233,0.0641614511576288,0.052747951237866,"faces",50,"F_07_split_by_duration_test.30808",369696,0.0367909684435362,-0.729028703568073,0.0819467172595741,10.3355296754947,12.8204363252827
"07",9,55505,5000,10,"050",0,0,"C:\Users\ULB-CO3\Documents\Pietro\bloch_law_faces\final\neutral_Rafd090_04_Caucasian_female_neutral_frontal_010.tiff","C:\Users\ULB-CO3\Documents\Pietro\bloch_law_faces\final\neutral_Rafd090_22_Caucasian_female_neutral_frontal_050.tiff",1,0.1590562,1,9.40913531808403,0.0274747845313581,0.062349299201191,0.0564674597604851,"faces",50,"F_07_split_by_duration_test.55505",555050,0.534770634538354,-0.793980909818572,0.856520952803516,10.9242283857667,13.2268134787608
"07",10,100000,5000,10,"050",0,0,"C:\Users\ULB-CO3\Documents\Pietro\bloch_law_faces\final\neutral_Rafd090_14_Caucasian_female_neutral_frontal_010.tiff","C:\Users\ULB-CO3\Documents\Pietro\bloch_law_faces\final\neutral_Rafd090_28_Caucasian_male_neutral_frontal_050.tiff",0,0.31403,0,9.20195380277815,0.033746374912168,0.0595165427862002,0.0474705776080259,"faces",50,"F_07_split_by_duration_test.100000",1000000,1.73019157192783,-0.801149355159399,2.25202164562158,11.5129254649702,13.8155105579643
"08",1,500,5000,80,"050",1,1,"C:\Users\ULB-CO3\Documents\Pietro\bloch_law_faces\final\angry_Rafd090_04_Caucasian_female_angry_frontal_080.tiff","C:\Users\ULB-CO3\Documents\Pietro\bloch_law_faces\final\angry_Rafd090_21_Caucasian_male_angry_frontal_050.tiff",0,0.6760459,1,80.8207493796945,0.0277220467423934,0.0488943602730198,0.0649153677798422,"faces",50,"F_08_split_by_duration_test.500",40000,-0.84898384080146,1.67684884227159,-0.868605816686483,6.21460809842219,10.5966347330961
"08",2,901,5000,63,"050",1,1,"C:\Users\ULB-CO3\Documents\Pietro\bloch_law_faces\final\angry_Rafd090_08_Caucasian_female_angry_frontal_063.tiff","C:\Users\ULB-CO3\Documents\Pietro\bloch_law_faces\final\angry_Rafd090_07_Caucasian_male_angry_frontal_050.tiff",1,0.7442573,1,63.3213455047275,0.0552456283620894,0.0485681758360584,0.0955063214922671,"faces",50,"F_08_split_by_duration_test.901",56763,-0.80394767679773,1.07137243193858,-0.856029217567031,6.80350525760834,10.9466399839999
"08",4,2924,5000,34,"050",1,1,"C:\Users\ULB-CO3\Documents\Pietro\bloch_law_faces\final\angry_Rafd090_07_Caucasian_male_angry_frontal_034.tiff","C:\Users\ULB-CO3\Documents\Pietro\bloch_law_faces\final\angry_Rafd090_03_Caucasian_male_angry_frontal_050.tiff",1,0.5960705,0,34.3813992244662,0.027373770280453,0.0604964404049801,0.0539433854834152,"faces",50,"F_08_split_by_duration_test.2924",99416,-0.689354375881957,0.0700551919799771,-0.792581686348446,7.98070782086967,11.5070683454858
"08",5,5268,5000,51,"050",0,0,"C:\Users\ULB-CO3\Documents\Pietro\bloch_law_faces\final\neutral_Rafd090_04_Caucasian_female_neutral_frontal_051.tiff","C:\Users\ULB-CO3\Documents\Pietro\bloch_law_faces\final\neutral_Rafd090_12_Caucasian_female_neutral_frontal_050.tiff",0,0.5740286,0,50.4158237630444,0.0270781525307922,0.0557637461348229,0.0672203579964362,"faces",50,"F_08_split_by_duration_test.5268",268668,-0.234635004053563,0.624843565386337,-0.719066603216284,8.56940606286317,12.5012316955875
"08",6,9491,5000,29,"050",0,1,"C:\Users\ULB-CO3\Documents\Pietro\bloch_law_faces\final\neutral_Rafd090_02_Caucasian_female_neutral_frontal_029.tiff","C:\Users\ULB-CO3\Documents\Pietro\bloch_law_faces\final\angry_Rafd090_14_Caucasian_female_angry_frontal_050.tiff",0,0.338075,1,29.5435769011951,0.0266085411063633,0.0559648248478646,0.0594364233743594,"faces",50,"F_08_split_by_duration_test.9491",275239,-0.216981085681642,-0.0973326410600568,-0.586620273836114,9.15809926013049,12.525395090117
"08",7,17100,5000,18,"050",1,0,"C:\Users\ULB-CO3\Documents\Pietro\bloch_law_faces\final\angry_Rafd090_15_Caucasian_male_angry_frontal_018.tiff","C:\Users\ULB-CO3\Documents\Pietro\bloch_law_faces\final\neutral_Rafd090_10_Caucasian_male_neutral_frontal_050.tiff",1,0.74105,0,17.2872173898666,0.0370921633116598,0.0719953807991568,0.0478425225421174,"faces",50,"F_08_split_by_duration_test.17100",307800,-0.129501366292185,-0.521400604385695,-0.347978521467249,9.74683374249075,12.6372055003869
"08",8,30808,5000,5,"050",1,0,"C:\Users\ULB-CO3\Documents\Pietro\bloch_law_faces\final\angry_Rafd090_08_Caucasian_female_angry_frontal_005.tiff","C:\Users\ULB-CO3\Documents\Pietro\bloch_law_faces\final\neutral_Rafd090_31_Caucasian_female_neutral_frontal_050.tiff",0,0.5050908,1,5.87278576347047,0.0328179688804615,0.092130385788798,0.0534770406720229,"faces",50,"F_08_split_by_duration_test.30808",154040,-0.54259929489766,-0.916338005483592,0.0819467172595741,10.3355296754947,11.9449675879288
"08",9,55505,5000,4,"050",0,1,"C:\Users\ULB-CO3\Documents\Pietro\bloch_law_faces\final\neutral_Rafd090_21_Caucasian_male_neutral_frontal_004.tiff","C:\Users\ULB-CO3\Documents\Pietro\bloch_law_faces\final\angry_Rafd090_16_Caucasian_female_angry_frontal_050.tiff",1,0.5110474,0,3.39696752060202,0.0236652926011088,0.060796127624587,0.0599484417319058,"faces",50,"F_08_split_by_duration_test.55505",222020,-0.359961435983767,-1.00200089737635,0.856520952803516,10.9242283857667,12.3105227468866
"08",10,100000,5000,24,"050",0,0,"C:\Users\ULB-CO3\Documents\Pietro\bloch_law_faces\final\neutral_Rafd090_01_Caucasian_female_neutral_frontal_024.tiff","C:\Users\ULB-CO3\Documents\Pietro\bloch_law_faces\final\neutral_Rafd090_12_Caucasian_female_neutral_frontal_050.tiff",0,0.4791669,1,23.1125381972079,0.0342809872506032,0.0737388295519144,0.0454990924260833,"faces",50,"F_08_split_by_duration_test.100000",2400000,5.49148904882472,-0.319845491041935,2.25202164562158,11.5129254649702,14.6909792953182
"09",3,1623,5000,76,"050",0,0,"C:\Users\ULB-CO3\Documents\Pietro\bloch_law_faces\final\neutral_Rafd090_21_Caucasian_male_neutral_frontal_076.tiff","C:\Users\ULB-CO3\Documents\Pietro\bloch_law_faces\final\neutral_Rafd090_18_Caucasian_female_neutral_frontal_050.tiff",1,0.2720419,0,76.4498897039455,0.028510043639557,0.0568205265800262,0.0774815230370314,"faces",50,"F_09_split_by_duration_test.1623",123348,-0.625057682155459,1.52561783774991,-0.833385066534001,7.39203156751459,11.7227649078009
"09",4,2924,5000,88,"050",1,0,"C:\Users\ULB-CO3\Documents\Pietro\bloch_law_faces\final\angry_Rafd090_24_Caucasian_male_angry_frontal_088.tiff","C:\Users\ULB-CO3\Documents\Pietro\bloch_law_faces\final\neutral_Rafd090_25_Caucasian_male_neutral_frontal_050.tiff",0,0.0350911,1,87.6098352693841,0.0199524901918383,0.0599040487635043,0.0655966459635986,"faces",50,"F_09_split_by_duration_test.2924",257312,-0.265144499873306,1.91175006423905,-0.792581686348446,7.98070782086967,12.4580446353479
"09",5,5268,5000,36,"050",1,1,"C:\Users\ULB-CO3\Documents\Pietro\bloch_law_faces\final\angry_Rafd090_25_Caucasian_male_angry_frontal_036.tiff","C:\Users\ULB-CO3\Documents\Pietro\bloch_law_faces\final\angry_Rafd090_20_Caucasian_male_angry_frontal_050.tiff",1,0.0150618,1,36.8836057711922,0.0399259972913749,0.0480159184980915,0.0895904685592196,"faces",50,"F_09_split_by_duration_test.5268",189648,-0.446933380213843,0.156631114717018,-0.719066603216284,8.56940606286317,12.1529250013193
"09",6,9491,5000,21,"050",0,1,"C:\Users\ULB-CO3\Documents\Pietro\bloch_law_faces\final\neutral_Rafd090_15_Caucasian_male_neutral_frontal_021.tiff","C:\Users\ULB-CO3\Documents\Pietro\bloch_law_faces\final\angry_Rafd090_16_Caucasian_female_angry_frontal_050.tiff",1,0.1629233,0,20.2444941750747,0.0450360162214203,0.0490087974826627,0.0918974105622195,"faces",50,"F_09_split_by_duration_test.9491",199311,-0.420972367700089,-0.419079328468957,-0.586620273836114,9.15809926013049,12.2026216978539
"09",7,17100,5000,8,"050",0,0,"C:\Users\ULB-CO3\Documents\Pietro\bloch_law_faces\final\neutral_Rafd090_15_Caucasian_male_neutral_frontal_008.tiff","C:\Users\ULB-CO3\Documents\Pietro\bloch_law_faces\final\neutral_Rafd090_27_Caucasian_female_neutral_frontal_050.tiff",1,0.001087,1,11.8891203979488,0.0530115888838197,0.0496695686252037,0.0963749746499472,"faces",50,"F_09_split_by_duration_test.17100",136800,-0.58891698668459,-0.708173846071449,-0.347978521467249,9.74683374249075,11.8262752841706
"09",8,30808,5000,15,"050",0,0,"C:\Users\ULB-CO3\Documents\Pietro\bloch_law_faces\final\neutral_Rafd090_27_Caucasian_female_neutral_frontal_015.tiff","C:\Users\ULB-CO3\Documents\Pietro\bloch_law_faces\final\neutral_Rafd090_07_Caucasian_male_neutral_frontal_050.tiff",1,0.0011418,0,14.1561350344673,0.0259721087253474,0.0751254824457569,0.052999714023813,"faces",50,"F_09_split_by_duration_test.30808",462120,0.285101081304049,-0.629735523594924,0.0819467172595741,10.3355296754947,13.043579876597
"09",9,55505,5000,9,"050",0,1,"C:\Users\ULB-CO3\Documents\Pietro\bloch_law_faces\final\neutral_Rafd090_26_Caucasian_female_neutral_frontal_009.tiff","C:\Users\ULB-CO3\Documents\Pietro\bloch_law_faces\final\angry_Rafd090_10_Caucasian_male_angry_frontal_050.tiff",0,0.264056,1,9.84097826093516,0.0316473348627204,0.0438283192697523,0.0653416575696246,"faces",50,"F_09_split_by_duration_test.55505",499545,0.385648622784667,-0.779039217133875,0.856520952803516,10.9242283857667,13.121452963103
"09",10,100000,5000,2,"050",1,0,"C:\Users\ULB-CO3\Documents\Pietro\bloch_law_faces\final\angry_Rafd090_12_Caucasian_female_angry_frontal_002.tiff","C:\Users\ULB-CO3\Documents\Pietro\bloch_law_faces\final\neutral_Rafd090_09_Caucasian_male_neutral_frontal_050.tiff",0,0.0240351,1,2.94690035983374,0.0288216277493282,0.0433842469113333,0.0687052121658446,"faces",50,"F_09_split_by_duration_test.100000",200000,-0.419121272013245,-1.01757314491448,2.25202164562158,11.5129254649702,12.2060726455302
"10",1,500,5000,24,"050",0,1,"C:\Users\ULB-CO3\Documents\Pietro\bloch_law_faces\final\neutral_Rafd090_19_Caucasian_female_neutral_frontal_024.tiff","C:\Users\ULB-CO3\Documents\Pietro\bloch_law_faces\final\angry_Rafd090_10_Caucasian_male_angry_frontal_050.tiff",0,0.3740419,0,24.6443006261727,0.0269449862659657,0.0655204422487838,0.0594455357800834,"faces",50,"F_10_split_by_duration_test.500",12000,-0.924209790339398,-0.266846770422697,-0.868605816686483,6.21460809842219,9.39266192877014
"10",3,1623,5000,85,"050",0,1,"C:\Users\ULB-CO3\Documents\Pietro\bloch_law_faces\final\neutral_Rafd090_05_Caucasian_male_neutral_frontal_085.tiff","C:\Users\ULB-CO3\Documents\Pietro\bloch_law_faces\final\angry_Rafd090_14_Caucasian_female_angry_frontal_050.tiff",0,0.1530342,1,85.6588634186774,0.0322175734793079,0.0524302024862902,0.0772998070985658,"faces",50,"F_10_split_by_duration_test.1623",137955,-0.58581391626615,1.84424676862585,-0.833385066534001,7.39203156751459,11.8346828240049
"10",4,2924,5000,99,"050",0,0,"C:\Users\ULB-CO3\Documents\Pietro\bloch_law_faces\final\neutral_Rafd090_01_Caucasian_female_neutral_frontal_099.tiff","C:\Users\ULB-CO3\Documents\Pietro\bloch_law_faces\final\neutral_Rafd090_10_Caucasian_male_neutral_frontal_050.tiff",0,1.5830683,0,98.3224489704637,0.0255427212051823,0.0654713761464392,0.0526011607526714,"faces",50,"F_10_split_by_duration_test.2924",289476,-0.178731376982655,2.28240468398255,-0.792581686348446,7.98070782086967,12.5758276710043
"10",5,5268,5000,51,"050",0,1,"C:\Users\ULB-CO3\Documents\Pietro\bloch_law_faces\final\neutral_Rafd090_08_Caucasian_female_neutral_frontal_051.tiff","C:\Users\ULB-CO3\Documents\Pietro\bloch_law_faces\final\angry_Rafd090_12_Caucasian_female_angry_frontal_050.tiff",1,0.0760515,0,50.1544730945871,0.0273157283855165,0.0728680899840628,0.0466069312024688,"faces",50,"F_10_split_by_duration_test.5268",268668,-0.234635004053563,0.615800876520688,-0.719066603216284,8.56940606286317,12.5012316955875
"10",6,9491,5000,36,"050",0,0,"C:\Users\ULB-CO3\Documents\Pietro\bloch_law_faces\final\neutral_Rafd090_26_Caucasian_female_neutral_frontal_036.tiff","C:\Users\ULB-CO3\Documents\Pietro\bloch_law_faces\final\neutral_Rafd090_09_Caucasian_male_neutral_frontal_050.tiff",0,1.0510731,0,36.2490903686568,0.0458644513252016,0.0928565416814229,0.0496080596698029,"faces",50,"F_10_split_by_duration_test.9491",341676,-0.0384887139155,0.134676989252338,-0.586620273836114,9.15809926013049,12.7416181985866
"10",7,17100,5000,19,"050",0,0,"C:\Users\ULB-CO3\Documents\Pietro\bloch_law_faces\final\neutral_Rafd090_04_Caucasian_female_neutral_frontal_019.tiff","C:\Users\ULB-CO3\Documents\Pietro\bloch_law_faces\final\neutral_Rafd090_12_Caucasian_female_neutral_frontal_050.tiff",0,0.3570433,0,18.2222546376113,0.0271263478587597,0.0647136668338565,0.0766247647400398,"faces",50,"F_10_split_by_duration_test.17100",324900,-0.0835598042529444,-0.489048473973871,-0.347978521467249,9.74683374249075,12.6912727216572
"10",8,30808,5000,9,"050",1,1,"C:\Users\ULB-CO3\Documents\Pietro\bloch_law_faces\final\angry_Rafd090_02_Caucasian_female_angry_frontal_009.tiff","C:\Users\ULB-CO3\Documents\Pietro\bloch_law_faces\final\angry_Rafd090_08_Caucasian_female_angry_frontal_050.tiff",1,0.2860717,1,9.92334519760168,0.0427226210716683,0.0716251607916496,0.0743001302262312,"faces",50,"F_10_split_by_duration_test.30808",277272,-0.211519144416976,-0.776189335075075,0.0819467172595741,10.3355296754947,12.532754252831
"10",9,55505,5000,9,"050",1,0,"C:\Users\ULB-CO3\Documents\Pietro\bloch_law_faces\final\angry_Rafd090_07_Caucasian_male_angry_frontal_009.tiff","C:\Users\ULB-CO3\Documents\Pietro\bloch_law_faces\final\neutral_Rafd090_15_Caucasian_male_neutral_frontal_050.tiff",1,1.333052,1,9.83113339139993,0.030374523678849,0.0764290944622281,0.06154701083019,"faces",50,"F_10_split_by_duration_test.55505",499545,0.385648622784667,-0.779379847952444,0.856520952803516,10.9242283857667,13.121452963103
"10",10,100000,5000,8,"050",0,0,"C:\Users\ULB-CO3\Documents\Pietro\bloch_law_faces\final\neutral_Rafd090_18_Caucasian_female_neutral_frontal_008.tiff","C:\Users\ULB-CO3\Documents\Pietro\bloch_law_faces\final\neutral_Rafd090_01_Caucasian_female_neutral_frontal_050.tiff",0,0.2180418,0,7.97960027802918,0.0457972961315261,0.0781757604585256,0.0529002924194075,"faces",50,"F_10_split_by_duration_test.100000",800000,1.19286336094256,-0.843442580095,2.25202164562158,11.5129254649702,13.5923670066501
"11",2,901,5000,90,"050",0,1,"C:\Users\ULB-CO3\Documents\Pietro\bloch_law_faces\final\neutral_Rafd090_28_Caucasian_male_neutral_frontal_090.tiff","C:\Users\ULB-CO3\Documents\Pietro\bloch_law_faces\final\angry_Rafd090_03_Caucasian_male_angry_frontal_050.tiff",0,0.7710831,1,89.6891892043975,0.0297162935524171,0.0520243789862939,0.0705221088159535,"faces",50,"F_11_split_by_duration_test.901",81090,-0.738589759854537,1.98369535822616,-0.856029217567031,6.80350525760834,11.3033149279386
"11",4,2924,5000,78,"050",1,0,"C:\Users\ULB-CO3\Documents\Pietro\bloch_law_faces\final\angry_Rafd090_18_Caucasian_female_angry_frontal_078.tiff","C:\Users\ULB-CO3\Documents\Pietro\bloch_law_faces\final\neutral_Rafd090_27_Caucasian_female_neutral_frontal_050.tiff",0,0.432056,0,77.9082274726391,0.0348685659613982,0.048879352939216,0.0867376833271107,"faces",50,"F_11_split_by_duration_test.2924",228072,-0.343701884319353,1.57607607755914,-0.792581686348446,7.98070782086967,12.3374166475593
"11",5,5268,5000,37,"050",1,1,"C:\Users\ULB-CO3\Documents\Pietro\bloch_law_faces\final\angry_Rafd090_09_Caucasian_male_angry_frontal_037.tiff","C:\Users\ULB-CO3\Documents\Pietro\bloch_law_faces\final\angry_Rafd090_15_Caucasian_male_angry_frontal_050.tiff",0,0.5131179,0,36.9989572474681,0.04605878784978,0.0632913425161653,0.055972040217525,"faces",50,"F_11_split_by_duration_test.5268",194916,-0.432780155136491,0.160622256259963,-0.719066603216284,8.56940606286317,12.1803239755074
"11",6,9491,5000,27,"050",0,0,"C:\Users\ULB-CO3\Documents\Pietro\bloch_law_faces\final\neutral_Rafd090_14_Caucasian_female_neutral_frontal_027.tiff","C:\Users\ULB-CO3\Documents\Pietro\bloch_law_faces\final\neutral_Rafd090_26_Caucasian_female_neutral_frontal_050.tiff",0,0.3670956,0,26.4967499290702,0.0292066545270092,0.0706161294671624,0.0653854990046983,"faces",50,"F_11_split_by_duration_test.9491",256257,-0.267978906186254,-0.202752338277683,-0.586620273836114,9.15809926013049,12.4539361261348
"11",7,17100,5000,17,"050",0,1,"C:\Users\ULB-CO3\Documents\Pietro\bloch_law_faces\final\neutral_Rafd090_27_Caucasian_female_neutral_frontal_017.tiff","C:\Users\ULB-CO3\Documents\Pietro\bloch_law_faces\final\angry_Rafd090_25_Caucasian_male_angry_frontal_050.tiff",1,0.3080332,1,17.5994845474517,0.0284463446604597,0.0537528735513619,0.0715502932804592,"faces",50,"F_11_split_by_duration_test.17100",290700,-0.175442928331425,-0.510596213619563,-0.347978521467249,9.74683374249075,12.580047086547
"11",8,30808,5000,5,"050",1,0,"C:\Users\ULB-CO3\Documents\Pietro\bloch_law_faces\final\angry_Rafd090_22_Caucasian_female_angry_frontal_005.tiff","C:\Users\ULB-CO3\Documents\Pietro\bloch_law_faces\final\neutral_Rafd090_01_Caucasian_female_neutral_frontal_050.tiff",0,0.2920753,1,5.87892116898903,0.0293645073457236,0.0452375164754543,0.0729228196795742,"faces",50,"F_11_split_by_duration_test.30808",154040,-0.54259929489766,-0.916125721491757,0.0819467172595741,10.3355296754947,11.9449675879288
"11",9,55505,5000,4,"050",0,0,"C:\Users\ULB-CO3\Documents\Pietro\bloch_law_faces\final\neutral_Rafd090_04_Caucasian_female_neutral_frontal_004.tiff","C:\Users\ULB-CO3\Documents\Pietro\bloch_law_faces\final\neutral_Rafd090_05_Caucasian_male_neutral_frontal_050.tiff",0,0.9840535,0,2.80096881845554,0.0470541763677856,0.0949790075425894,0.0616021195735943,"faces",50,"F_11_split_by_duration_test.55505",222020,-0.359961435983767,-1.02262235153085,0.856520952803516,10.9242283857667,12.3105227468866
"11",10,100000,5000,9,"050",0,1,"C:\Users\ULB-CO3\Documents\Pietro\bloch_law_faces\final\neutral_Rafd090_31_Caucasian_female_neutral_frontal_009.tiff","C:\Users\ULB-CO3\Documents\Pietro\bloch_law_faces\final\angry_Rafd090_04_Caucasian_female_angry_frontal_050.tiff",1,0.1150492,1,8.60329457172439,0.0250775705530454,0.0624642795868882,0.0624360394244825,"faces",50,"F_11_split_by_duration_test.100000",900000,1.4615274664352,-0.821862863163502,2.25202164562158,11.5129254649702,13.7101500423064
"12",4,2924,5000,88,"050",0,1,"C:\Users\ULB-CO3\Documents\Pietro\bloch_law_faces\final\neutral_Rafd090_28_Caucasian_male_neutral_frontal_088.tiff","C:\Users\ULB-CO3\Documents\Pietro\bloch_law_faces\final\angry_Rafd090_10_Caucasian_male_angry_frontal_050.tiff",1,0.0010605,0,88.461663955194,0.0255106050477163,0.0630014998069587,0.0556228526795713,"faces",50,"F_12_split_by_duration_test.2924",257312,-0.265144499873306,1.94122319250033,-0.792581686348446,7.98070782086967,12.4580446353479
"12",5,5268,5000,46,"050",1,1,"C:\Users\ULB-CO3\Documents\Pietro\bloch_law_faces\final\angry_Rafd090_31_Caucasian_female_angry_frontal_046.tiff","C:\Users\ULB-CO3\Documents\Pietro\bloch_law_faces\final\angry_Rafd090_18_Caucasian_female_angry_frontal_050.tiff",1,0.0300589,0,45.182831068227,0.0300448903042716,0.0659990528732461,0.0652991477037359,"faces",50,"F_12_split_by_duration_test.5268",242328,-0.305401129440323,0.443782904417799,-0.719066603216284,8.56940606286317,12.3980474593523
"12",6,9491,5000,11,"050",1,0,"C:\Users\ULB-CO3\Documents\Pietro\bloch_law_faces\final\angry_Rafd090_12_Caucasian_female_angry_frontal_011.tiff","C:\Users\ULB-CO3\Documents\Pietro\bloch_law_faces\final\neutral_Rafd090_22_Caucasian_female_neutral_frontal_050.tiff",0,0.0170624,0,11.7633448531599,0.0261375960706889,0.0761226893874953,0.065150568747504,"faces",50,"F_12_split_by_duration_test.9491",104401,-0.675961470223149,-0.712525658619498,-0.586620273836114,9.15809926013049,11.5559945329289
"12",7,17100,5000,16,"050",0,1,"C:\Users\ULB-CO3\Documents\Pietro\bloch_law_faces\final\neutral_Rafd090_08_Caucasian_female_neutral_frontal_016.tiff","C:\Users\ULB-CO3\Documents\Pietro\bloch_law_faces\final\angry_Rafd090_07_Caucasian_male_angry_frontal_050.tiff",0,0.0760369,1,16.8107172601098,0.0273601644903505,0.0486427698595766,0.0851202294043445,"faces",50,"F_12_split_by_duration_test.17100",273600,-0.221384490370666,-0.53788742817408,-0.347978521467249,9.74683374249075,12.5194224647305
"12",8,30808,5000,14,"050",0,1,"C:\Users\ULB-CO3\Documents\Pietro\bloch_law_faces\final\neutral_Rafd090_18_Caucasian_female_neutral_frontal_014.tiff","C:\Users\ULB-CO3\Documents\Pietro\bloch_law_faces\final\angry_Rafd090_20_Caucasian_male_angry_frontal_050.tiff",0,0.1500783,0,13.0153525669988,0.0507103353228209,0.0463042892987828,0.088637851406366,"faces",50,"F_12_split_by_duration_test.30808",431312,0.202331043683878,-0.66920640376369,0.0819467172595741,10.3355296754947,12.97458700511
"12",9,55505,5000,9,"050",1,0,"C:\Users\ULB-CO3\Documents\Pietro\bloch_law_faces\final\angry_Rafd090_08_Caucasian_female_angry_frontal_009.tiff","C:\Users\ULB-CO3\Documents\Pietro\bloch_law_faces\final\neutral_Rafd090_22_Caucasian_female_neutral_frontal_050.tiff",1,0.0011028,1,9.88813303207212,0.0339254469405654,0.075318654217908,0.0765855877754537,"faces",50,"F_12_split_by_duration_test.55505",499545,0.385648622784667,-0.777407670038781,0.856520952803516,10.9242283857667,13.121452963103
"12",10,100000,5000,8,"050",1,1,"C:\Users\ULB-CO3\Documents\Pietro\bloch_law_faces\final\angry_Rafd090_20_Caucasian_male_angry_frontal_008.tiff","C:\Users\ULB-CO3\Documents\Pietro\bloch_law_faces\final\angry_Rafd090_01_Caucasian_female_angry_frontal_050.tiff",1,0.0011288,1,8.86776718204083,0.0277642291410118,0.0645047460724372,0.0731793850715851,"faces",50,"F_12_split_by_duration_test.100000",800000,1.19286336094256,-0.812712155638266,2.25202164562158,11.5129254649702,13.5923670066501
"13",4,2924,5000,85,"050",0,0,"C:\Users\ULB-CO3\Documents\Pietro\bloch_law_faces\final\neutral_Rafd090_18_Caucasian_female_neutral_frontal_085.tiff","C:\Users\ULB-CO3\Documents\Pietro\bloch_law_faces\final\neutral_Rafd090_14_Caucasian_female_neutral_frontal_050.tiff",1,0.923056,1,85.2113265224927,0.0311619898493457,0.0567948978068339,0.087806268419818,"faces",50,"F_13_split_by_duration_test.2924",248540,-0.28871171520712,1.82876206781377,-0.792581686348446,7.98070782086967,12.42335907736
"13",5,5268,5000,46,"050",1,1,"C:\Users\ULB-CO3\Documents\Pietro\bloch_law_faces\final\angry_Rafd090_21_Caucasian_male_angry_frontal_046.tiff","C:\Users\ULB-CO3\Documents\Pietro\bloch_law_faces\final\angry_Rafd090_10_Caucasian_male_angry_frontal_050.tiff",1,0.2910356,1,45.6337091691389,0.0327927019229484,0.0544875077132915,0.0900437319526105,"faces",50,"F_13_split_by_duration_test.5268",242328,-0.305401129440323,0.459383210347559,-0.719066603216284,8.56940606286317,12.3980474593523
"13",6,9491,5000,32,"050",1,0,"C:\Users\ULB-CO3\Documents\Pietro\bloch_law_faces\final\angry_Rafd090_07_Caucasian_male_angry_frontal_032.tiff","C:\Users\ULB-CO3\Documents\Pietro\bloch_law_faces\final\neutral_Rafd090_16_Caucasian_female_neutral_frontal_050.tiff",0,0.4630746,1,32.6872083274958,0.0304871324349937,0.060245155162302,0.0862643330039846,"faces",50,"F_13_split_by_duration_test.9491",303712,-0.140484354924724,0.0114364738770191,-0.586620273836114,9.15809926013049,12.6238351629302
"13",7,17100,5000,15,"050",1,0,"C:\Users\ULB-CO3\Documents\Pietro\bloch_law_faces\final\angry_Rafd090_05_Caucasian_male_angry_frontal_015.tiff","C:\Users\ULB-CO3\Documents\Pietro\bloch_law_faces\final\neutral_Rafd090_16_Caucasian_female_neutral_frontal_050.tiff",0,0.4630538,0,14.2797261716657,0.0245109300200252,0.0647236735117654,0.0726411809934442,"faces",50,"F_13_split_by_duration_test.17100",256500,-0.267326052409906,-0.625459291179549,-0.347978521467249,9.74683374249075,12.454883943593
"13",8,30808,5000,12,"050",1,1,"C:\Users\ULB-CO3\Documents\Pietro\bloch_law_faces\final\angry_Rafd090_25_Caucasian_male_angry_frontal_012.tiff","C:\Users\ULB-CO3\Documents\Pietro\bloch_law_faces\final\angry_Rafd090_04_Caucasian_female_angry_frontal_050.tiff",0,0.3070678,1,11.7255566956047,0.0323221797454022,0.0787902430118195,0.064184686602029,"faces",50,"F_13_split_by_duration_test.30808",369696,0.0367909684435362,-0.713833122471015,0.0819467172595741,10.3355296754947,12.8204363252827
"13",9,55505,5000,9,"050",1,1,"C:\Users\ULB-CO3\Documents\Pietro\bloch_law_faces\final\angry_Rafd090_31_Caucasian_female_angry_frontal_009.tiff","C:\Users\ULB-CO3\Documents\Pietro\bloch_law_faces\final\angry_Rafd090_09_Caucasian_male_angry_frontal_050.tiff",1,0.3351737,1,8.19345717807629,0.0276094778258019,0.0627278370489426,0.0533892814158508,"faces",50,"F_13_split_by_duration_test.55505",499545,0.385648622784667,-0.836043167572686,0.856520952803516,10.9242283857667,13.121452963103
"13",10,100000,5000,9,"050",0,1,"C:\Users\ULB-CO3\Documents\Pietro\bloch_law_faces\final\neutral_Rafd090_28_Caucasian_male_neutral_frontal_009.tiff","C:\Users\ULB-CO3\Documents\Pietro\bloch_law_faces\final\angry_Rafd090_19_Caucasian_female_angry_frontal_050.tiff",1,0.3400609,0,8.0009630253902,0.047940286728142,0.0433794363972265,0.0514661107442877,"faces",50,"F_13_split_by_duration_test.100000",900000,1.4615274664352,-0.842703432654355,2.25202164562158,11.5129254649702,13.7101500423064
"14",4,2924,5000,67,"050",1,1,"C:\Users\ULB-CO3\Documents\Pietro\bloch_law_faces\final\angry_Rafd090_12_Caucasian_female_angry_frontal_067.tiff","C:\Users\ULB-CO3\Documents\Pietro\bloch_law_faces\final\angry_Rafd090_09_Caucasian_male_angry_frontal_050.tiff",0,0.4860367,1,66.1689282068623,0.0294759859326714,0.0606900091731073,0.063728348671201,"faces",50,"F_14_split_by_duration_test.2924",195908,-0.430115007210004,1.16989831115903,-0.792581686348446,7.98070782086967,12.1854004402606
"14",5,5268,5000,37,"050",0,1,"C:\Users\ULB-CO3\Documents\Pietro\bloch_law_faces\final\neutral_Rafd090_05_Caucasian_male_neutral_frontal_037.tiff","C:\Users\ULB-CO3\Documents\Pietro\bloch_law_faces\final\angry_Rafd090_15_Caucasian_male_angry_frontal_050.tiff",1,0.2720543,1,37.8796376810207,0.0373366297562624,0.0469556481159008,0.0857769604258551,"faces",50,"F_14_split_by_duration_test.5268",194916,-0.432780155136491,0.19109365010674,-0.719066603216284,8.56940606286317,12.1803239755074
"14",6,9491,5000,29,"050",1,0,"C:\Users\ULB-CO3\Documents\Pietro\bloch_law_faces\final\angry_Rafd090_05_Caucasian_male_angry_frontal_029.tiff","C:\Users\ULB-CO3\Documents\Pietro\bloch_law_faces\final\neutral_Rafd090_25_Caucasian_male_neutral_frontal_050.tiff",0,0.5420389,0,29.0272086913949,0.0404999393479502,0.0710944336398349,0.0894017754721289,"faces",50,"F_14_split_by_duration_test.9491",275239,-0.216981085681642,-0.11519889366579,-0.586620273836114,9.15809926013049,12.525395090117
"14",7,17100,5000,17,"050",1,0,"C:\Users\ULB-CO3\Documents\Pietro\bloch_law_faces\final\angry_Rafd090_24_Caucasian_male_angry_frontal_017.tiff","C:\Users\ULB-CO3\Documents\Pietro\bloch_law_faces\final\neutral_Rafd090_14_Caucasian_female_neutral_frontal_050.tiff",1,1.1430302,1,17.8583278361192,0.0298163507738579,0.0654272515454607,0.0644344044303144,"faces",50,"F_14_split_by_duration_test.17100",290700,-0.175442928331425,-0.501640279669985,-0.347978521467249,9.74683374249075,12.580047086547
"14",8,30808,5000,15,"050",0,1,"C:\Users\ULB-CO3\Documents\Pietro\bloch_law_faces\final\neutral_Rafd090_23_Caucasian_male_neutral_frontal_015.tiff","C:\Users\ULB-CO3\Documents\Pietro\bloch_law_faces\final\angry_Rafd090_22_Caucasian_female_angry_frontal_050.tiff",1,0.3021265,1,14.2879994728589,0.0284304715378132,0.0687872809117046,0.0550966494765375,"faces",50,"F_14_split_by_duration_test.30808",462120,0.285101081304049,-0.62517303635945,0.0819467172595741,10.3355296754947,13.043579876597
"14",9,55505,5000,9,"050",0,1,"C:\Users\ULB-CO3\Documents\Pietro\bloch_law_faces\final\neutral_Rafd090_14_Caucasian_female_neutral_frontal_009.tiff","C:\Users\ULB-CO3\Documents\Pietro\bloch_law_faces\final\angry_Rafd090_03_Caucasian_male_angry_frontal_050.tiff",1,0.2011788,1,9.86005138201276,0.0301274994299745,0.0451982998015436,0.0661994389571877,"faces",50,"F_14_split_by_duration_test.55505",499545,0.385648622784667,-0.77837929037486,0.856520952803516,10.9242283857667,13.121452963103
"14",10,100000,5000,11,"050",1,0,"C:\Users\ULB-CO3\Documents\Pietro\bloch_law_faces\final\angry_Rafd090_04_Caucasian_female_angry_frontal_011.tiff","C:\Users\ULB-CO3\Documents\Pietro\bloch_law_faces\final\neutral_Rafd090_25_Caucasian_male_neutral_frontal_050.tiff",1,0.3670578,1,10.1658451581433,0.0287800424237419,0.0755064327720585,0.0506408069725832,"faces",50,"F_14_split_by_duration_test.100000",1100000,1.99885567742047,-0.767798877510708,2.25202164562158,11.5129254649702,13.9108207377686
"15",4,2924,5000,94,"050",0,1,"C:\Users\ULB-CO3\Documents\Pietro\bloch_law_faces\final\neutral_Rafd090_23_Caucasian_male_neutral_frontal_094.tiff","C:\Users\ULB-CO3\Documents\Pietro\bloch_law_faces\final\angry_Rafd090_21_Caucasian_male_angry_frontal_050.tiff",1,0.4230294,0,93.5678048008898,0.0466167716789637,0.0912467098642797,0.0841955050929917,"faces",50,"F_15_split_by_duration_test.2924",274856,-0.218010069205678,2.11789480097319,-0.792581686348446,7.98070782086967,12.5240026031397
"15",5,5268,5000,50,"050",1,0,"C:\Users\ULB-CO3\Documents\Pietro\bloch_law_faces\final\angry_Rafd090_01_Caucasian_female_angry_frontal_050.tiff","C:\Users\ULB-CO3\Documents\Pietro\bloch_law_faces\final\neutral_Rafd090_10_Caucasian_male_neutral_frontal_050.tiff",1,0.6451234,1,50.7133978017534,0.031019662376616,0.0633762374554062,0.0786931749222334,"faces",50,"F_15_split_by_duration_test.5268",263400,-0.248788229130915,0.635139576727818,-0.719066603216284,8.56940606286317,12.4814290682913
"15",6,9491,5000,27,"050",1,0,"C:\Users\ULB-CO3\Documents\Pietro\bloch_law_faces\final\angry_Rafd090_22_Caucasian_female_angry_frontal_027.tiff","C:\Users\ULB-CO3\Documents\Pietro\bloch_law_faces\final\neutral_Rafd090_04_Caucasian_female_neutral_frontal_050.tiff",0,0.3801047,1,27.8117699816354,0.0271987698106657,0.0753698558082875,0.0633574574748975,"faces",50,"F_15_split_by_duration_test.9491",256257,-0.267978906186254,-0.157252867173865,-0.586620273836114,9.15809926013049,12.4539361261348
"15",7,17100,5000,19,"050",1,0,"C:\Users\ULB-CO3\Documents\Pietro\bloch_law_faces\final\angry_Rafd090_01_Caucasian_female_angry_frontal_019.tiff","C:\Users\ULB-CO3\Documents\Pietro\bloch_law_faces\final\neutral_Rafd090_18_Caucasian_female_neutral_frontal_050.tiff",1,0.4210611,0,18.2062141382029,0.0289789267449531,0.060460800194538,0.0753075654346986,"faces",50,"F_15_split_by_duration_test.17100",324900,-0.0835598042529444,-0.489603472536744,-0.347978521467249,9.74683374249075,12.6912727216572
"15",8,30808,5000,12,"050",1,1,"C:\Users\ULB-CO3\Documents\Pietro\bloch_law_faces\final\angry_Rafd090_15_Caucasian_male_angry_frontal_012.tiff","C:\Users\ULB-CO3\Documents\Pietro\bloch_law_faces\final\angry_Rafd090_21_Caucasian_male_angry_frontal_050.tiff",1,0.4511539,1,12.4739103175229,0.0292723792741464,0.0559072744991209,0.0556040795860304,"faces",50,"F_15_split_by_duration_test.30808",369696,0.0367909684435362,-0.687940213895603,0.0819467172595741,10.3355296754947,12.8204363252827
"15",9,55505,5000,10,"050",0,1,"C:\Users\ULB-CO3\Documents\Pietro\bloch_law_faces\final\neutral_Rafd090_15_Caucasian_male_neutral_frontal_010.tiff","C:\Users\ULB-CO3\Documents\Pietro\bloch_law_faces\final\angry_Rafd090_25_Caucasian_male_angry_frontal_050.tiff",1,0.5621381,1,9.04468944552007,0.0269695593376456,0.0573980053259135,0.0580924615607829,"faces",50,"F_15_split_by_duration_test.55505",555050,0.534770634538354,-0.806590675285861,0.856520952803516,10.9242283857667,13.2268134787608
"15",10,100000,5000,9,"050",1,1,"C:\Users\ULB-CO3\Documents\Pietro\bloch_law_faces\final\angry_Rafd090_12_Caucasian_female_angry_frontal_009.tiff","C:\Users\ULB-CO3\Documents\Pietro\bloch_law_faces\final\angry_Rafd090_25_Caucasian_male_angry_frontal_050.tiff",0,0.6520328,1,8.24593439835165,0.0327723829087689,0.0587104178335007,0.0713974937233926,"faces",50,"F_15_split_by_duration_test.100000",900000,1.4615274664352,-0.834227464638826,2.25202164562158,11.5129254649702,13.7101500423064
"16",4,2924,5000,75,"050",1,0,"C:\Users\ULB-CO3\Documents\Pietro\bloch_law_faces\final\angry_Rafd090_16_Caucasian_female_angry_frontal_075.tiff","C:\Users\ULB-CO3\Documents\Pietro\bloch_law_faces\final\neutral_Rafd090_19_Caucasian_female_neutral_frontal_050.tiff",0,0.2820448,0,75.6891921014269,0.0297270281337035,0.0501973427520042,0.0613440804526027,"faces",50,"F_16_split_by_duration_test.2924",219300,-0.367269099653167,1.49929782953633,-0.792581686348446,7.98070782086967,12.298195934406
"16",5,5268,5000,55,"050",0,0,"C:\Users\ULB-CO3\Documents\Pietro\bloch_law_faces\final\neutral_Rafd090_07_Caucasian_male_neutral_frontal_055.tiff","C:\Users\ULB-CO3\Documents\Pietro\bloch_law_faces\final\neutral_Rafd090_16_Caucasian_female_neutral_frontal_050.tiff",0,0.3724336,0,54.0209771746055,0.0836629157542843,0.0909788184133985,0.0433397132247581,"faces",50,"F_16_split_by_duration_test.5268",289740,-0.178022103744155,0.749581262848956,-0.719066603216284,8.56940606286317,12.5767392480956
"16",6,9491,5000,24,"050",1,0,"C:\Users\ULB-CO3\Documents\Pietro\bloch_law_faces\final\angry_Rafd090_26_Caucasian_female_angry_frontal_024.tiff","C:\Users\ULB-CO3\Documents\Pietro\bloch_law_faces\final\neutral_Rafd090_19_Caucasian_female_neutral_frontal_050.tiff",0,0.1340529,0,24.5105071351706,0.0244930956408253,0.0574025063365604,0.071463511181818,"faces",50,"F_16_split_by_duration_test.9491",227784,-0.344475636943171,-0.271476002551785,-0.586620273836114,9.15809926013049,12.3361530904784
"16",7,17100,5000,7,"050",1,0,"C:\Users\ULB-CO3\Documents\Pietro\bloch_law_faces\final\angry_Rafd090_16_Caucasian_female_angry_frontal_007.tiff","C:\Users\ULB-CO3\Documents\Pietro\bloch_law_faces\final\neutral_Rafd090_26_Caucasian_female_neutral_frontal_050.tiff",1,0.2130823,1,7.80064161178213,0.0307226023370903,0.046172831754412,0.0628639279877359,"faces",50,"F_16_split_by_duration_test.17100",119700,-0.634858548723831,-0.849634519638281,-0.347978521467249,9.74683374249075,11.6927438915461
"18",4,2924,5000,67,"050",0,1,"C:\Users\ULB-CO3\Documents\Pietro\bloch_law_faces\final\neutral_Rafd090_18_Caucasian_female_neutral_frontal_067.tiff","C:\Users\ULB-CO3\Documents\Pietro\bloch_law_faces\final\angry_Rafd090_12_Caucasian_female_angry_frontal_050.tiff",0,0.4390532,1,67.9172588381084,0.0297643875144085,0.0767954252479055,0.0689329182923823,"faces",50,"F_18_split_by_duration_test.2924",195908,-0.430115007210004,1.2303902548987,-0.792581686348446,7.98070782086967,12.1854004402606
"18",5,5268,5000,45,"050",0,1,"C:\Users\ULB-CO3\Documents\Pietro\bloch_law_faces\final\neutral_Rafd090_25_Caucasian_male_neutral_frontal_045.tiff","C:\Users\ULB-CO3\Documents\Pietro\bloch_law_faces\final\angry_Rafd090_01_Caucasian_female_angry_frontal_050.tiff",1,0.4750328,0,45.4115564092191,0.0361873209464238,0.0855967672111596,0.0515203501238741,"faces",50,"F_18_split_by_duration_test.5268",237060,-0.319554354517675,0.451696762478656,-0.719066603216284,8.56940606286317,12.3760685526335
"18",6,9491,5000,28,"050",1,0,"C:\Users\ULB-CO3\Documents\Pietro\bloch_law_faces\final\angry_Rafd090_27_Caucasian_female_angry_frontal_028.tiff","C:\Users\ULB-CO3\Documents\Pietro\bloch_law_faces\final\neutral_Rafd090_27_Caucasian_female_neutral_frontal_050.tiff",1,0.4530804,0,28.2815101051816,0.0237681807505067,0.0685595766747387,0.0550571891936167,"faces",50,"F_18_split_by_duration_test.9491",265748,-0.242479995933948,-0.140999938455476,-0.586620273836114,9.15809926013049,12.4903037703057
"18",7,17100,5000,18,"050",0,0,"C:\Users\ULB-CO3\Documents\Pietro\bloch_law_faces\final\neutral_Rafd090_07_Caucasian_male_neutral_frontal_018.tiff","C:\Users\ULB-CO3\Documents\Pietro\bloch_law_faces\final\neutral_Rafd090_20_Caucasian_male_neutral_frontal_050.tiff",1,0.6241163,1,17.4388922554077,0.0326442412750113,0.081234031706865,0.0544000586625235,"faces",50,"F_18_split_by_duration_test.17100",307800,-0.129501366292185,-0.516152679725991,-0.347978521467249,9.74683374249075,12.6372055003869
"18",8,30808,5000,12,"050",1,0,"C:\Users\ULB-CO3\Documents\Pietro\bloch_law_faces\final\angry_Rafd090_04_Caucasian_female_angry_frontal_012.tiff","C:\Users\ULB-CO3\Documents\Pietro\bloch_law_faces\final\neutral_Rafd090_12_Caucasian_female_neutral_frontal_050.tiff",1,0.2430444,0,11.0902775499253,0.0353230338722537,0.0749164243581256,0.0677371080239478,"faces",50,"F_18_split_by_duration_test.30808",369696,0.0367909684435362,-0.735813673319129,0.0819467172595741,10.3355296754947,12.8204363252827
"18",9,55505,5000,8,"050",0,0,"C:\Users\ULB-CO3\Documents\Pietro\bloch_law_faces\final\neutral_Rafd090_05_Caucasian_male_neutral_frontal_008.tiff","C:\Users\ULB-CO3\Documents\Pietro\bloch_law_faces\final\neutral_Rafd090_16_Caucasian_female_neutral_frontal_050.tiff",1,0.477129,1,8.76040843803484,0.0262398964326996,0.049036629520336,0.0704131415039784,"faces",50,"F_18_split_by_duration_test.55505",444040,0.23652661103098,-0.81642674999834,0.856520952803516,10.9242283857667,13.0036699274466
"18",10,100000,5000,8,"050",1,0,"C:\Users\ULB-CO3\Documents\Pietro\bloch_law_faces\final\angry_Rafd090_15_Caucasian_male_angry_frontal_008.tiff","C:\Users\ULB-CO3\Documents\Pietro\bloch_law_faces\final\neutral_Rafd090_10_Caucasian_male_neutral_frontal_050.tiff",0,0.2801077,1,8.82298607737522,0.033183042256364,0.0444966304991708,0.0696491766954492,"faces",50,"F_18_split_by_duration_test.100000",800000,1.19286336094256,-0.814261574275461,2.25202164562158,11.5129254649702,13.5923670066501
"01",4,2924,5000,87,"050",1,1,"C:\Users\ULB-CO3\Documents\Pietro\bloch_law_landscapes\final\natural_2997_087.tiff","C:\Users\ULB-CO3\Documents\Pietro\bloch_law_landscapes\final\natural_3026_050.tiff",1,0.1100801,0,87.5092492330696,0.0250365140362223,0.0587894843195288,0.0578744660461399,"landscapes",50,"L_01_split_by_duration_test.2924",254388,-0.273000238317911,1.90826980441805,-0.792581686348446,7.98070782086967,12.4466159395243
"01",5,5268,5000,32,"050",0,0,"C:\Users\ULB-CO3\Documents\Pietro\bloch_law_landscapes\final\urban_3435_032.tiff","C:\Users\ULB-CO3\Documents\Pietro\bloch_law_landscapes\final\urban_3338_050.tiff",1,0.1770655,0,32.927129361716,0.0310187768013836,0.0439251972958857,0.0765186316530909,"landscapes",50,"L_01_split_by_duration_test.5268",168576,-0.503546280523251,0.0197377010274383,-0.719066603216284,8.56940606286317,12.0351419656629
"01",6,9491,5000,32,"050",0,1,"C:\Users\ULB-CO3\Documents\Pietro\bloch_law_landscapes\final\urban_3383_032.tiff","C:\Users\ULB-CO3\Documents\Pietro\bloch_law_landscapes\final\natural_2563_050.tiff",1,0.2590477,0,31.2552874661982,0.0270510316041882,0.0708618023455652,0.0558230655796029,"landscapes",50,"L_01_split_by_duration_test.9491",303712,-0.140484354924724,-0.03810774541034,-0.586620273836114,9.15809926013049,12.6238351629302
"01",7,17100,5000,15,"050",1,1,"C:\Users\ULB-CO3\Documents\Pietro\bloch_law_landscapes\final\natural_2565_015.tiff","C:\Users\ULB-CO3\Documents\Pietro\bloch_law_landscapes\final\natural_3042_050.tiff",1,0.1420371,1,15.9548359161411,0.0341741490058352,0.0426616102215445,0.0633539251320757,"landscapes",50,"L_01_split_by_duration_test.17100",256500,-0.267326052409906,-0.567500777721288,-0.347978521467249,9.74683374249075,12.454883943593
"01",8,30808,5000,10,"050",1,1,"C:\Users\ULB-CO3\Documents\Pietro\bloch_law_landscapes\final\natural_3097_010.tiff","C:\Users\ULB-CO3\Documents\Pietro\bloch_law_landscapes\final\natural_2998_050.tiff",1,0.3100798,1,9.23177187861412,0.02819947409134,0.0611997340437505,0.0694388408569676,"landscapes",50,"L_01_split_by_duration_test.30808",308080,-0.128749106796806,-0.800117654785535,0.0819467172595741,10.3355296754947,12.6381147684888
"01",9,55505,5000,8,"050",0,1,"C:\Users\ULB-CO3\Documents\Pietro\bloch_law_landscapes\final\urban_1956_008.tiff","C:\Users\ULB-CO3\Documents\Pietro\bloch_law_landscapes\final\natural_3035_050.tiff",1,0.2531747,0,7.0636162021913,0.0294259378702605,0.0756477737031604,0.0495669282481217,"landscapes",50,"L_01_split_by_duration_test.55505",444040,0.23652661103098,-0.87513547398574,0.856520952803516,10.9242283857667,13.0036699274466
"01",10,100000,5000,6,"050",0,0,"C:\Users\ULB-CO3\Documents\Pietro\bloch_law_landscapes\final\urban_3634_006.tiff","C:\Users\ULB-CO3\Documents\Pietro\bloch_law_landscapes\final\urban_3581_050.tiff",1,0.0011779,1,5.65885183793511,0.0247606987105564,0.0540357382730495,0.066340140075294,"landscapes",50,"L_01_split_by_duration_test.100000",600000,0.655535149957293,-0.923740083074755,2.25202164562158,11.5129254649702,13.3046849341983
"02",4,2924,5000,95,"050",1,1,"C:\Users\ULB-CO3\Documents\Pietro\bloch_law_landscapes\final\natural_1797_095.tiff","C:\Users\ULB-CO3\Documents\Pietro\bloch_law_landscapes\final\natural_3045_050.tiff",1,0.2331314,1,94.3219855682249,0.0303512695550192,0.0621020636034253,0.0487212871443045,"landscapes",50,"L_02_split_by_duration_test.2924",277780,-0.210154330761074,2.14398932779313,-0.792581686348446,7.98070782086967,12.5345847124702
"02",5,5268,5000,57,"050",1,1,"C:\Users\ULB-CO3\Documents\Pietro\bloch_law_landscapes\final\natural_2581_057.tiff","C:\Users\ULB-CO3\Documents\Pietro\bloch_law_landscapes\final\natural_1474_050.tiff",0,0.366073,1,56.1465142269304,0.0255833143047488,0.0652760684410955,0.0701980986493743,"landscapes",50,"L_02_split_by_duration_test.5268",300276,-0.149715653589451,0.823124484873365,-0.719066603216284,8.56940606286317,12.6124573306977
"02",6,9491,5000,26,"050",1,0,"C:\Users\ULB-CO3\Documents\Pietro\bloch_law_landscapes\final\natural_3062_026.tiff","C:\Users\ULB-CO3\Documents\Pietro\bloch_law_landscapes\final\urban_3573_050.tiff",0,0.2090566,0,25.0436774102757,0.0400641295258363,0.0779791742595865,0.0750670148503483,"landscapes",50,"L_02_split_by_duration_test.9491",246766,-0.29347781643856,-0.25302840133214,-0.586620273836114,9.15809926013049,12.416195798152
"02",7,17100,5000,14,"050",1,1,"C:\Users\ULB-CO3\Documents\Pietro\bloch_law_landscapes\final\natural_2617_014.tiff","C:\Users\ULB-CO3\Documents\Pietro\bloch_law_landscapes\final\natural_1752_050.tiff",0,0.2452251,0,13.6189296979787,0.0398609112328395,0.0865075661313318,0.0686909714954596,"landscapes",50,"L_02_split_by_duration_test.17100",239400,-0.313267614449147,-0.64832273725505,-0.347978521467249,9.74683374249075,12.385891072106
"02",8,30808,5000,10,"050",1,0,"C:\Users\ULB-CO3\Documents\Pietro\bloch_law_landscapes\final\natural_1321_010.tiff","C:\Users\ULB-CO3\Documents\Pietro\bloch_law_landscapes\final\urban_3709_050.tiff",0,0.3850634,0,9.06675993229054,0.035782608274959,0.058648255760316,0.0722701388219756,"landscapes",50,"L_02_split_by_duration_test.30808",308080,-0.128749106796806,-0.805827040181514,0.0819467172595741,10.3355296754947,12.6381147684888
"02",9,55505,5000,8,"050",1,1,"C:\Users\ULB-CO3\Documents\Pietro\bloch_law_landscapes\final\natural_1589_008.tiff","C:\Users\ULB-CO3\Documents\Pietro\bloch_law_landscapes\final\natural_2957_050.tiff",1,0.2430649,0,8.61458235042406,0.044475174550535,0.0670934795464902,0.0907740548319723,"landscapes",50,"L_02_split_by_duration_test.55505",444040,0.23652661103098,-0.821472307932218,0.856520952803516,10.9242283857667,13.0036699274466
"02",10,100000,5000,6,"050",1,1,"C:\Users\ULB-CO3\Documents\Pietro\bloch_law_landscapes\final\natural_1364_006.tiff","C:\Users\ULB-CO3\Documents\Pietro\bloch_law_landscapes\final\natural_2581_050.tiff",1,0.4320342,1,6.872586520535,0.0298912729701027,0.0449203377394421,0.0665046609710284,"landscapes",50,"L_02_split_by_duration_test.100000",600000,0.655535149957293,-0.881745068617804,2.25202164562158,11.5129254649702,13.3046849341983
"03",4,2924,5000,69,"050",0,1,"C:\Users\ULB-CO3\Documents\Pietro\bloch_law_landscapes\final\urban_2315_069.tiff","C:\Users\ULB-CO3\Documents\Pietro\bloch_law_landscapes\final\natural_1408_050.tiff",0,0.3550818,0,69.4762931832899,0.0273119427151785,0.0748870366214942,0.0636827533736582,"landscapes",50,"L_03_split_by_duration_test.2924",201756,-0.414403530320794,1.28433257920019,-0.792581686348446,7.98070782086967,12.2148143254669
"03",5,5268,5000,54,"050",1,1,"C:\Users\ULB-CO3\Documents\Pietro\bloch_law_landscapes\final\natural_2977_054.tiff","C:\Users\ULB-CO3\Documents\Pietro\bloch_law_landscapes\final\natural_3018_050.tiff",1,0.3000706,1,54.834538457493,0.0298883286988346,0.081130358757279,0.0633074647576211,"landscapes",50,"L_03_split_by_duration_test.5268",284472,-0.192175328821507,0.777730345450181,-0.719066603216284,8.56940606286317,12.5583901094274
"03",6,9491,5000,33,"050",0,1,"C:\Users\ULB-CO3\Documents\Pietro\bloch_law_landscapes\final\urban_2408_033.tiff","C:\Users\ULB-CO3\Documents\Pietro\bloch_law_landscapes\final\natural_1767_050.tiff",0,0.4700899,1,32.1845558043744,0.0293066195602199,0.0818608525268758,0.0728024488009976,"landscapes",50,"L_03_split_by_duration_test.9491",313203,-0.114985444672418,-0.00595521829254936,-0.586620273836114,9.15809926013049,12.654606821597
"03",7,17100,5000,18,"050",1,1,"C:\Users\ULB-CO3\Documents\Pietro\bloch_law_landscapes\final\natural_1289_018.tiff","C:\Users\ULB-CO3\Documents\Pietro\bloch_law_landscapes\final\natural_2996_050.tiff",0,0.4181729,0,17.0058895224415,0.0304024000354372,0.0801754974435849,0.0653576626570225,"landscapes",50,"L_03_split_by_duration_test.17100",307800,-0.129501366292185,-0.531134500952244,-0.347978521467249,9.74683374249075,12.6372055003869
"03",8,30808,5000,10,"050",0,0,"C:\Users\ULB-CO3\Documents\Pietro\bloch_law_landscapes\final\urban_3499_010.tiff","C:\Users\ULB-CO3\Documents\Pietro\bloch_law_landscapes\final\urban_3475_050.tiff",0,0.4240702,0,10.9806209686753,0.0416439441563383,0.0534129005567233,0.0608779458301785,"landscapes",50,"L_03_split_by_duration_test.30808",308080,-0.128749106796806,-0.739607772458678,0.0819467172595741,10.3355296754947,12.6381147684888
"03",9,55505,5000,6,"050",0,0,"C:\Users\ULB-CO3\Documents\Pietro\bloch_law_landscapes\final\urban_3835_006.tiff","C:\Users\ULB-CO3\Documents\Pietro\bloch_law_landscapes\final\urban_2411_050.tiff",0,0.2551668,1,6.93201504262712,0.0253048895981161,0.0445649796036704,0.0717328531789802,"landscapes",50,"L_03_split_by_duration_test.55505",333030,-0.0617174124763932,-0.879688851818373,0.856520952803516,10.9242283857667,12.7159878549948
"03",10,100000,5000,6,"050",1,0,"C:\Users\ULB-CO3\Documents\Pietro\bloch_law_landscapes\final\natural_2565_006.tiff","C:\Users\ULB-CO3\Documents\Pietro\bloch_law_landscapes\final\urban_3487_050.tiff",0,0.4920568,0,5.00012591337311,0.0744905750616304,0.0446337326575382,0.0407925675025858,"landscapes",50,"L_03_split_by_duration_test.100000",600000,0.655535149957293,-0.946531888501204,2.25202164562158,11.5129254649702,13.3046849341983
"04",4,2924,5000,64,"050",1,0,"C:\Users\ULB-CO3\Documents\Pietro\bloch_law_landscapes\final\natural_2544_064.tiff","C:\Users\ULB-CO3\Documents\Pietro\bloch_law_landscapes\final\urban_2335_050.tiff",1,0.1640678,1,64.96290935485,0.0321318851693295,0.0448938996766878,0.0646700564418687,"landscapes",50,"L_04_split_by_duration_test.2924",187136,-0.453682222543818,1.12817026313364,-0.792581686348446,7.98070782086967,12.1395909042293
"04",5,5268,5000,61,"050",1,0,"C:\Users\ULB-CO3\Documents\Pietro\bloch_law_landscapes\final\natural_1647_061.tiff","C:\Users\ULB-CO3\Documents\Pietro\bloch_law_landscapes\final\urban_3858_050.tiff",1,0.0010901,1,61.7575387613953,0.027127513621981,0.0676967562785281,0.0647795377300248,"landscapes",50,"L_04_split_by_duration_test.5268",321348,-0.0931027532800428,1.01726498346933,-0.719066603216284,8.56940606286317,12.6802799270365
"04",6,9491,5000,31,"050",1,1,"C:\Users\ULB-CO3\Documents\Pietro\bloch_law_landscapes\final\natural_1372_031.tiff","C:\Users\ULB-CO3\Documents\Pietro\bloch_law_landscapes\final\natural_1500_050.tiff",1,0.337221,0,30.9694089076701,0.0487323508383074,0.0680457474183108,0.0922982222620407,"landscapes",50,"L_04_split_by_duration_test.9491",294221,-0.16598326517703,-0.0479990951183366,-0.586620273836114,9.15809926013049,12.5920864646156
"04",7,17100,5000,19,"050",1,1,"C:\Users\ULB-CO3\Documents\Pietro\bloch_law_landscapes\final\natural_2624_019.tiff","C:\Users\ULB-CO3\Documents\Pietro\bloch_law_landscapes\final\natural_3000_050.tiff",1,0.0010789,0,19.6292741514705,0.0221711056795543,0.0550522712229254,0.065528823150047,"landscapes",50,"L_04_split_by_duration_test.17100",324900,-0.0835598042529444,-0.440365837090529,-0.347978521467249,9.74683374249075,12.6912727216572
"04",8,30808,5000,10,"050",0,1,"C:\Users\ULB-CO3\Documents\Pietro\bloch_law_landscapes\final\urban_3942_010.tiff","C:\Users\ULB-CO3\Documents\Pietro\bloch_law_landscapes\final\natural_2622_050.tiff",1,0.0520988,0,10.5425209925314,0.0250954448036215,0.0560824536457198,0.0605531424813712,"landscapes",50,"L_04_split_by_duration_test.30808",308080,-0.128749106796806,-0.754765957435598,0.0819467172595741,10.3355296754947,12.6381147684888
"04",9,55505,5000,8,"050",0,1,"C:\Users\ULB-CO3\Documents\Pietro\bloch_law_landscapes\final\urban_3492_008.tiff","C:\Users\ULB-CO3\Documents\Pietro\bloch_law_landscapes\final\natural_1907_050.tiff",0,0.9740939,0,8.13857056389658,0.0408108885942297,0.0920397165823746,0.0640462473216058,"landscapes",50,"L_04_split_by_duration_test.55505",444040,0.23652661103098,-0.837942235127576,0.856520952803516,10.9242283857667,13.0036699274466
"04",10,100000,5000,5,"050",0,0,"C:\Users\ULB-CO3\Documents\Pietro\bloch_law_landscapes\final\urban_3891_005.tiff","C:\Users\ULB-CO3\Documents\Pietro\bloch_law_landscapes\final\urban_3617_050.tiff",1,0.4091046,1,5.8412965020584,0.035862972917189,0.0894174713755593,0.0619222924125819,"landscapes",50,"L_04_split_by_duration_test.100000",500000,0.386871044464659,-0.917427528595353,2.25202164562158,11.5129254649702,13.1223633774043
"07",4,2924,5000,72,"050",0,0,"C:\Users\ULB-CO3\Documents\Pietro\bloch_law_landscapes\final\urban_3847_072.tiff","C:\Users\ULB-CO3\Documents\Pietro\bloch_law_landscapes\final\urban_2486_050.tiff",1,0.2370813,0,71.3396704087013,0.0301626107979399,0.0593022395919582,0.0505848443776305,"landscapes",50,"L_07_split_by_duration_test.2924",210528,-0.39083631498698,1.34880511561341,-0.792581686348446,7.98070782086967,12.2573739398857
"07",5,5268,5000,54,"050",0,0,"C:\Users\ULB-CO3\Documents\Pietro\bloch_law_landscapes\final\urban_3518_054.tiff","C:\Users\ULB-CO3\Documents\Pietro\bloch_law_landscapes\final\urban_2166_050.tiff",0,0.3380351,0,53.0164394180487,0.0380008497376782,0.0590015036686596,0.0430461221897337,"landscapes",50,"L_07_split_by_duration_test.5268",284472,-0.192175328821507,0.714824426603005,-0.719066603216284,8.56940606286317,12.5583901094274
"07",6,9491,5000,26,"050",0,1,"C:\Users\ULB-CO3\Documents\Pietro\bloch_law_landscapes\final\urban_3683_026.tiff","C:\Users\ULB-CO3\Documents\Pietro\bloch_law_landscapes\final\natural_3242_050.tiff",0,0.3510743,1,25.6827536508937,0.0263710714548709,0.0517672246378355,0.0632966558571688,"landscapes",50,"L_07_split_by_duration_test.9491",246766,-0.29347781643856,-0.230916471642236,-0.586620273836114,9.15809926013049,12.416195798152
"07",7,17100,5000,19,"050",1,1,"C:\Users\ULB-CO3\Documents\Pietro\bloch_law_landscapes\final\natural_2900_019.tiff","C:\Users\ULB-CO3\Documents\Pietro\bloch_law_landscapes\final\natural_1744_050.tiff",1,0.3500636,1,18.1094443371204,0.0388019495479855,0.066291745645344,0.0653602103444531,"landscapes",50,"L_07_split_by_duration_test.17100",324900,-0.0835598042529444,-0.492951691265034,-0.347978521467249,9.74683374249075,12.6912727216572
"07",8,30808,5000,9,"050",0,0,"C:\Users\ULB-CO3\Documents\Pietro\bloch_law_landscapes\final\urban_3390_009.tiff","C:\Users\ULB-CO3\Documents\Pietro\bloch_law_landscapes\final\urban_3475_050.tiff",1,0.1950308,1,9.90779264939493,0.0344937542521249,0.0699757282551817,0.0629460723466735,"landscapes",50,"L_07_split_by_duration_test.30808",277272,-0.211519144416976,-0.776727450609012,0.0819467172595741,10.3355296754947,12.532754252831
"07",9,55505,5000,6,"050",0,1,"C:\Users\ULB-CO3\Documents\Pietro\bloch_law_landscapes\final\urban_3942_006.tiff","C:\Users\ULB-CO3\Documents\Pietro\bloch_law_landscapes\final\natural_1850_050.tiff",1,0.1510427,1,6.59660583309194,0.027523617195933,0.0528919062374409,0.0589483548770212,"landscapes",50,"L_07_split_by_duration_test.55505",333030,-0.0617174124763932,-0.891293953662586,0.856520952803516,10.9242283857667,12.7159878549948
"07",10,100000,5000,6,"050",0,0,"C:\Users\ULB-CO3\Documents\Pietro\bloch_law_landscapes\final\urban_3713_006.tiff","C:\Users\ULB-CO3\Documents\Pietro\bloch_law_landscapes\final\urban_3742_050.tiff",1,0.156056,1,5.99998294453285,0.0469911987985221,0.0415370814018095,0.0567061359001409,"landscapes",50,"L_07_split_by_duration_test.100000",600000,0.655535149957293,-0.911937004561252,2.25202164562158,11.5129254649702,13.3046849341983
"08",1,500,5000,34,"050",0,0,"C:\Users\ULB-CO3\Documents\Pietro\bloch_law_landscapes\final\urban_3921_034.tiff","C:\Users\ULB-CO3\Documents\Pietro\bloch_law_landscapes\final\urban_3742_050.tiff",1,0.3970414,1,33.1752843007841,0.0292673303419759,0.0644451080078465,0.0809967544318221,"landscapes",50,"L_08_split_by_duration_test.500",17000,-0.910776585064766,0.0283238198910813,-0.868605816686483,6.21460809842219,9.74096862303835
"08",2,901,5000,88,"050",0,1,"C:\Users\ULB-CO3\Documents\Pietro\bloch_law_landscapes\final\urban_1956_088.tiff","C:\Users\ULB-CO3\Documents\Pietro\bloch_law_landscapes\final\natural_1524_050.tiff",1,0.4190321,0,88.6810343354026,0.0258021391120754,0.0539791582687164,0.0664778553363892,"landscapes",50,"L_08_split_by_duration_test.901",79288,-0.743431087035514,1.94881337050245,-0.856029217567031,6.80350525760834,11.2808420720865
"08",3,1623,5000,97,"050",1,0,"C:\Users\ULB-CO3\Documents\Pietro\bloch_law_landscapes\final\natural_3098_097.tiff","C:\Users\ULB-CO3\Documents\Pietro\bloch_law_landscapes\final\urban_3587_050.tiff",0,0.1271005,1,97.8978700041398,0.0276630139815528,0.0485698204805269,0.0654194399297706,"landscapes",50,"L_08_split_by_duration_test.1623",157431,-0.533488895080405,2.26771432365545,-0.833385066534001,7.39203156751459,11.966742546018
"08",4,2924,5000,78,"050",1,1,"C:\Users\ULB-CO3\Documents\Pietro\bloch_law_landscapes\final\natural_1589_078.tiff","C:\Users\ULB-CO3\Documents\Pietro\bloch_law_landscapes\final\natural_1491_050.tiff",0,0.001088,1,77.6348561670668,0.0239929032779707,0.0574729108945924,0.063196904168653,"landscapes",50,"L_08_split_by_duration_test.2924",228072,-0.343701884319353,1.56661747668516,-0.792581686348446,7.98070782086967,12.3374166475593
"08",5,5268,5000,2,"050",0,1,"C:\Users\ULB-CO3\Documents\Pietro\bloch_law_landscapes\final\urban_3473_002.tiff","C:\Users\ULB-CO3\Documents\Pietro\bloch_law_landscapes\final\natural_2548_050.tiff",1,0.2440925,0,2.46153415896821,0.0239583960515171,0.0736753196503874,0.063159254005998,"landscapes",50,"L_08_split_by_duration_test.5268",10536,-0.92814303284381,-1.03436673326165,-0.719066603216284,8.56940606286317,9.26255324342312
"08",6,9491,5000,13,"050",0,1,"C:\Users\ULB-CO3\Documents\Pietro\bloch_law_landscapes\final\urban_3850_013.tiff","C:\Users\ULB-CO3\Documents\Pietro\bloch_law_landscapes\final\natural_2553_050.tiff",0,0.6990529,1,19.6913428840436,0.0549521877086098,0.0963393090732118,0.0531136823414989,"landscapes",50,"L_08_split_by_duration_test.9491",123383,-0.624963649718537,-0.438218269455608,-0.586620273836114,9.15809926013049,11.723048617592
"08",7,17100,5000,10,"050",1,1,"C:\Users\ULB-CO3\Documents\Pietro\bloch_law_landscapes\final\natural_3000_010.tiff","C:\Users\ULB-CO3\Documents\Pietro\bloch_law_landscapes\final\natural_1560_050.tiff",1,1.4570803,0,9.27247699880342,0.0219539470120121,0.0683682260557762,0.0545470834417847,"landscapes",50,"L_08_split_by_duration_test.17100",171000,-0.497033862606109,-0.798709264520902,-0.347978521467249,9.74683374249075,12.0494188354848
"08",8,30808,5000,22,"050",1,0,"C:\Users\ULB-CO3\Documents\Pietro\bloch_law_landscapes\final\natural_2965_022.tiff","C:\Users\ULB-CO3\Documents\Pietro\bloch_law_landscapes\final\urban_3527_050.tiff",1,0.3210789,0,21.0569904781292,0.049570803214954,0.0506271722014951,0.0903724342958065,"landscapes",50,"L_08_split_by_duration_test.30808",677776,0.864491344645245,-0.390967093989586,0.0819467172595741,10.3355296754947,13.4265721288531
"08",9,55505,5000,6,"050",0,1,"C:\Users\ULB-CO3\Documents\Pietro\bloch_law_landscapes\final\urban_3706_006.tiff","C:\Users\ULB-CO3\Documents\Pietro\bloch_law_landscapes\final\natural_2996_050.tiff",1,0.4650612,0,6.69116238629496,0.0265611206764192,0.0761538369924515,0.0632536681792798,"landscapes",50,"L_08_split_by_duration_test.55505",333030,-0.0617174124763932,-0.888022312936085,0.856520952803516,10.9242283857667,12.7159878549948
"08",10,100000,5000,4,"050",0,0,"C:\Users\ULB-CO3\Documents\Pietro\bloch_law_landscapes\final\urban_3364_004.tiff","C:\Users\ULB-CO3\Documents\Pietro\bloch_law_landscapes\final\urban_2500_050.tiff",1,0.3970652,0,4.75432960713321,0.0328737146795183,0.045895347014373,0.0626637485151352,"landscapes",50,"L_08_split_by_duration_test.100000",400000,0.118206938972024,-0.955036399068455,2.25202164562158,11.5129254649702,12.8992198260901
"09",4,2924,5000,67,"050",1,1,"C:\Users\ULB-CO3\Documents\Pietro\bloch_law_landscapes\final\natural_2572_067.tiff","C:\Users\ULB-CO3\Documents\Pietro\bloch_law_landscapes\final\natural_1647_050.tiff",0,0.4990579,0,66.1913342643894,0.0255692944107905,0.0677156252944643,0.0484515491866872,"landscapes",50,"L_09_split_by_duration_test.2924",195908,-0.430115007210004,1.17067355695473,-0.792581686348446,7.98070782086967,12.1854004402606
"09",5,5268,5000,42,"050",0,1,"C:\Users\ULB-CO3\Documents\Pietro\bloch_law_landscapes\final\urban_3623_042.tiff","C:\Users\ULB-CO3\Documents\Pietro\bloch_law_landscapes\final\natural_3062_050.tiff",1,0.0010905,1,41.4418966787752,0.0272072106611568,0.0690450654824531,0.0545830496048805,"landscapes",50,"L_09_split_by_duration_test.5268",221256,-0.362014029749731,0.314347208116352,-0.719066603216284,8.56940606286317,12.3070756811465
"09",6,9491,5000,20,"050",1,0,"C:\Users\ULB-CO3\Documents\Pietro\bloch_law_landscapes\final\natural_1836_020.tiff","C:\Users\ULB-CO3\Documents\Pietro\bloch_law_landscapes\final\urban_3578_050.tiff",0,0.103078,1,20.8204278971123,0.0290091464321076,0.0478755353129666,0.0765049195850612,"landscapes",50,"L_09_split_by_duration_test.9491",189820,-0.446471277952395,-0.399152119227967,-0.586620273836114,9.15809926013049,12.1538315336845
"09",7,17100,5000,20,"050",0,1,"C:\Users\ULB-CO3\Documents\Pietro\bloch_law_landscapes\final\urban_3735_020.tiff","C:\Users\ULB-CO3\Documents\Pietro\bloch_law_landscapes\final\natural_1443_050.tiff",1,0.1900376,1,20.6337741109935,0.0465238196797514,0.053437452508778,0.0934756895202276,"landscapes",50,"L_09_split_by_duration_test.17100",342000,-0.0376182422137039,-0.405610308615546,-0.347978521467249,9.74683374249075,12.7425660160447
"09",8,30808,5000,3,"050",0,0,"C:\Users\ULB-CO3\Documents\Pietro\bloch_law_landscapes\final\urban_3938_003.tiff","C:\Users\ULB-CO3\Documents\Pietro\bloch_law_landscapes\final\urban_3331_050.tiff",1,0.2141131,0,1.59615026404642,0.0553918247348763,0.0957760775107936,0.0511563232972815,"landscapes",50,"L_09_split_by_duration_test.30808",92424,-0.708139370138002,-1.06430886946246,0.0819467172595741,10.3355296754947,11.4341419641629
"09",9,55505,5000,6,"050",0,0,"C:\Users\ULB-CO3\Documents\Pietro\bloch_law_landscapes\final\urban_3512_006.tiff","C:\Users\ULB-CO3\Documents\Pietro\bloch_law_landscapes\final\urban_3548_050.tiff",0,0.3450459,1,6.83672618166254,0.0257696193174422,0.0482493489860381,0.0673301501256702,"landscapes",50,"L_09_split_by_duration_test.55505",333030,-0.0617174124763932,-0.882985830269399,0.856520952803516,10.9242283857667,12.7159878549948
"09",10,100000,5000,5,"050",1,0,"C:\Users\ULB-CO3\Documents\Pietro\bloch_law_landscapes\final\natural_1584_005.tiff","C:\Users\ULB-CO3\Documents\Pietro\bloch_law_landscapes\final\urban_2412_050.tiff",0,0.3891191,1,5.9840614120113,0.0435512969963054,0.0399527423396979,0.0601597479182807,"landscapes",50,"L_09_split_by_duration_test.100000",500000,0.386871044464659,-0.912487886889989,2.25202164562158,11.5129254649702,13.1223633774043
"10",4,2924,5000,68,"050",1,1,"C:\Users\ULB-CO3\Documents\Pietro\bloch_law_landscapes\final\natural_1317_068.tiff","C:\Users\ULB-CO3\Documents\Pietro\bloch_law_landscapes\final\natural_1767_050.tiff",1,1.5452668,0,67.865605913744,0.0589560116644206,0.046162210837655,0.0927350258753405,"landscapes",50,"L_10_split_by_duration_test.2924",198832,-0.422259268765399,1.22860307246375,-0.792581686348446,7.98070782086967,12.2002155260458
"10",6,9491,5000,27,"050",0,1,"C:\Users\ULB-CO3\Documents\Pietro\bloch_law_landscapes\final\urban_3847_027.tiff","C:\Users\ULB-CO3\Documents\Pietro\bloch_law_landscapes\final\natural_3029_050.tiff",0,0.625046,1,27.2592330498051,0.0505973647204011,0.0928088393370095,0.0668598521198349,"landscapes",50,"L_10_split_by_duration_test.9491",256257,-0.267978906186254,-0.176370551436219,-0.586620273836114,9.15809926013049,12.4539361261348
"10",7,17100,5000,16,"050",1,0,"C:\Users\ULB-CO3\Documents\Pietro\bloch_law_landscapes\final\natural_3064_016.tiff","C:\Users\ULB-CO3\Documents\Pietro\bloch_law_landscapes\final\urban_3339_050.tiff",0,0.4600408,0,14.9607965241399,0.0536886467910339,0.0944125722907328,0.0491190427784206,"landscapes",50,"L_10_split_by_duration_test.17100",273600,-0.221384490370666,-0.601894372331644,-0.347978521467249,9.74683374249075,12.5194224647305
"10",8,30808,5000,8,"050",0,0,"C:\Users\ULB-CO3\Documents\Pietro\bloch_law_landscapes\final\urban_3710_008.tiff","C:\Users\ULB-CO3\Documents\Pietro\bloch_law_landscapes\final\urban_3481_050.tiff",1,1.046075,1,7.11076340864827,0.0294911604601062,0.0811853769123197,0.0497575995223338,"landscapes",50,"L_10_split_by_duration_test.30808",246464,-0.294289182037147,-0.873504188627292,0.0819467172595741,10.3355296754947,12.4149712171746
"10",9,55505,5000,7,"050",1,1,"C:\Users\ULB-CO3\Documents\Pietro\bloch_law_landscapes\final\natural_1365_007.tiff","C:\Users\ULB-CO3\Documents\Pietro\bloch_law_landscapes\final\natural_1411_050.tiff",1,0.5650346,1,7.17586151022867,0.0327625359917373,0.0786496443132075,0.0781724820297895,"landscapes",50,"L_10_split_by_duration_test.55505",388535,0.0874045992772936,-0.87125180533778,0.856520952803516,10.9242283857667,12.8701385348221
"10",10,100000,5000,4,"050",1,0,"C:\Users\ULB-CO3\Documents\Pietro\bloch_law_landscapes\final\natural_2624_004.tiff","C:\Users\ULB-CO3\Documents\Pietro\bloch_law_landscapes\final\urban_3616_050.tiff",0,1.0731386,1,3.42959612674468,0.0455511919146958,0.0927890989717556,0.052860549435682,"landscapes",50,"L_10_split_by_duration_test.100000",400000,0.118206938972024,-1.00087195312987,2.25202164562158,11.5129254649702,12.8992198260901
"11",2,901,5000,88,"050",1,0,"C:\Users\ULB-CO3\Documents\Pietro\bloch_law_landscapes\final\natural_2545_088.tiff","C:\Users\ULB-CO3\Documents\Pietro\bloch_law_landscapes\final\urban_3635_050.tiff",0,0.4181269,0,85.3690665367561,0.0552762657412914,0.0502901566808629,0.0951339324575513,"landscapes",50,"L_11_split_by_duration_test.901",79288,-0.743431087035514,1.83421984559206,-0.856029217567031,6.80350525760834,11.2808420720865
"11",3,1623,5000,89,"050",1,0,"C:\Users\ULB-CO3\Documents\Pietro\bloch_law_landscapes\final\natural_3088_089.tiff","C:\Users\ULB-CO3\Documents\Pietro\bloch_law_landscapes\final\urban_3746_050.tiff",1,0.2482903,1,90.2126825026363,0.0568281652063496,0.0491244985602894,0.0952876873755393,"landscapes",50,"L_11_split_by_duration_test.1623",144447,-0.568372242537568,2.00180813768515,-0.833385066534001,7.39203156751459,11.8806679372467
"11",4,2924,5000,71,"050",1,0,"C:\Users\ULB-CO3\Documents\Pietro\bloch_law_landscapes\final\natural_1928_071.tiff","C:\Users\ULB-CO3\Documents\Pietro\bloch_law_landscapes\final\urban_1972_050.tiff",1,0.3620986,1,70.0478694659646,0.0332842501172578,0.056920798461794,0.0766496782633867,"landscapes",50,"L_11_split_by_duration_test.2924",207604,-0.398692053431585,1.30410902177721,-0.792581686348446,7.98070782086967,12.243387697911
"11",5,5268,5000,51,"050",0,1,"C:\Users\ULB-CO3\Documents\Pietro\bloch_law_landscapes\final\urban_3709_051.tiff","C:\Users\ULB-CO3\Documents\Pietro\bloch_law_landscapes\final\natural_3026_050.tiff",0,0.2310641,0,51.9870716289355,0.0622546769155583,0.0783669089407104,0.0668119296199876,"landscapes",50,"L_11_split_by_duration_test.5268",268668,-0.234635004053563,0.679208475435877,-0.719066603216284,8.56940606286317,12.5012316955875
"11",6,9491,5000,40,"050",0,0,"C:\Users\ULB-CO3\Documents\Pietro\bloch_law_landscapes\final\urban_3407_040.tiff","C:\Users\ULB-CO3\Documents\Pietro\bloch_law_landscapes\final\urban_3474_050.tiff",1,0.3340862,1,40.9035197293768,0.0473439589520697,0.0937456776157064,0.0590842477741115,"landscapes",50,"L_11_split_by_duration_test.9491",379640,0.0635069270937238,0.295719456847974,-0.586620273836114,9.15809926013049,12.8469787142444
"11",7,17100,5000,17,"050",0,1,"C:\Users\ULB-CO3\Documents\Pietro\bloch_law_landscapes\final\urban_3530_017.tiff","C:\Users\ULB-CO3\Documents\Pietro\bloch_law_landscapes\final\natural_1744_050.tiff",0,0.4011385,0,17.2694721414824,0.0313319744524796,0.078767539542,0.0763919790126225,"landscapes",50,"L_11_split_by_duration_test.17100",290700,-0.175442928331425,-0.522014586974411,-0.347978521467249,9.74683374249075,12.580047086547
"11",8,30808,5000,4,"050",1,1,"C:\Users\ULB-CO3\Documents\Pietro\bloch_law_landscapes\final\natural_1750_004.tiff","C:\Users\ULB-CO3\Documents\Pietro\bloch_law_landscapes\final\natural_2617_050.tiff",0,0.4860402,1,4.82720234334316,0.0290425658193017,0.0458265578995901,0.0718120137846964,"landscapes",50,"L_11_split_by_duration_test.30808",123232,-0.625369332517831,-0.952515014737491,0.0819467172595741,10.3355296754947,11.7218240366146
"11",9,55505,5000,1,"050",0,0,"C:\Users\ULB-CO3\Documents\Pietro\bloch_law_landscapes\final\urban_3591_001.tiff","C:\Users\ULB-CO3\Documents\Pietro\bloch_law_landscapes\final\urban_3623_050.tiff",1,0.3650382,1,1.93542445408989,0.0414017400860548,0.0901165529766805,0.0586647137550194,"landscapes",50,"L_11_split_by_duration_test.55505",55505,-0.807327471244827,-1.05257003994724,0.856520952803516,10.9242283857667,10.9242283857667
"11",10,100000,5000,5,"050",0,1,"C:\Users\ULB-CO3\Documents\Pietro\bloch_law_landscapes\final\urban_2515_005.tiff","C:\Users\ULB-CO3\Documents\Pietro\bloch_law_landscapes\final\natural_2532_050.tiff",1,0.8900527,1,5.95610478554729,0.0323931844107044,0.0417420398870186,0.066297243850438,"landscapes",50,"L_11_split_by_duration_test.100000",500000,0.386871044464659,-0.913455181430843,2.25202164562158,11.5129254649702,13.1223633774043
"12",4,2924,5000,83,"050",0,0,"C:\Users\ULB-CO3\Documents\Pietro\bloch_law_landscapes\final\urban_3936_083.tiff","C:\Users\ULB-CO3\Documents\Pietro\bloch_law_landscapes\final\urban_3519_050.tiff",0,0.2111353,1,82.7645744183943,0.02416437888446,0.0525786782274522,0.0661562565800397,"landscapes",50,"L_12_split_by_duration_test.2924",242692,-0.304423192096329,1.74410485939975,-0.792581686348446,7.98070782086967,12.3995484286663
"12",5,5268,5000,57,"050",0,0,"C:\Users\ULB-CO3\Documents\Pietro\bloch_law_landscapes\final\urban_3681_057.tiff","C:\Users\ULB-CO3\Documents\Pietro\bloch_law_landscapes\final\urban_2412_050.tiff",1,0.428074,0,56.1974691593378,0.0289048808423614,0.0637180029874024,0.0766366809399636,"landscapes",50,"L_12_split_by_duration_test.5268",300276,-0.149715653589451,0.824887516904812,-0.719066603216284,8.56940606286317,12.6124573306977
"12",6,9491,5000,30,"050",1,0,"C:\Users\ULB-CO3\Documents\Pietro\bloch_law_landscapes\final\natural_1869_030.tiff","C:\Users\ULB-CO3\Documents\Pietro\bloch_law_landscapes\final\urban_3524_050.tiff",1,0.0011063,0,30.227024871029,0.0269615052896825,0.0707823929807339,0.052666021189546,"landscapes",50,"L_12_split_by_duration_test.9491",284730,-0.191482175429336,-0.0736854570541848,-0.586620273836114,9.15809926013049,12.5592966417926
"12",7,17100,5000,14,"050",1,1,"C:\Users\ULB-CO3\Documents\Pietro\bloch_law_landscapes\final\natural_2540_014.tiff","C:\Users\ULB-CO3\Documents\Pietro\bloch_law_landscapes\final\natural_2972_050.tiff",0,0.2180436,0,14.5553604947774,0.0342858736815459,0.0886676856293409,0.0558716401485357,"landscapes",50,"L_12_split_by_duration_test.17100",239400,-0.313267614449147,-0.615922390281972,-0.347978521467249,9.74683374249075,12.385891072106
"12",8,30808,5000,8,"050",1,1,"C:\Users\ULB-CO3\Documents\Pietro\bloch_law_landscapes\final\natural_1285_008.tiff","C:\Users\ULB-CO3\Documents\Pietro\bloch_law_landscapes\final\natural_1347_050.tiff",1,0.0550364,1,8.96123193128352,0.0262746215697339,0.0505669218541887,0.064858527367993,"landscapes",50,"L_12_split_by_duration_test.30808",246464,-0.294289182037147,-0.809478291143882,0.0819467172595741,10.3355296754947,12.4149712171746
"12",9,55505,5000,8,"050",0,0,"C:\Users\ULB-CO3\Documents\Pietro\bloch_law_landscapes\final\urban_2408_008.tiff","C:\Users\ULB-CO3\Documents\Pietro\bloch_law_landscapes\final\urban_3363_050.tiff",0,0.2450789,0,7.00222810568432,0.0477568917560412,0.0484034111294246,0.0609170716381122,"landscapes",50,"L_12_split_by_duration_test.55505",444040,0.23652661103098,-0.877259491728046,0.856520952803516,10.9242283857667,13.0036699274466
"12",10,100000,5000,6,"050",1,1,"C:\Users\ULB-CO3\Documents\Pietro\bloch_law_landscapes\final\natural_1750_006.tiff","C:\Users\ULB-CO3\Documents\Pietro\bloch_law_landscapes\final\natural_1450_050.tiff",0,0.7550329,0,5.34235458449135,0.0336345208618873,0.0655679338756261,0.0525633127932996,"landscapes",50,"L_12_split_by_duration_test.100000",600000,0.655535149957293,-0.934690834441178,2.25202164562158,11.5129254649702,13.3046849341983
"13",4,2924,5000,79,"050",0,1,"C:\Users\ULB-CO3\Documents\Pietro\bloch_law_landscapes\final\urban_3760_079.tiff","C:\Users\ULB-CO3\Documents\Pietro\bloch_law_landscapes\final\natural_1739_050.tiff",0,0.5781835,1,79.7025684017298,0.0295647087705722,0.0514113477317247,0.0605422876811588,"landscapes",50,"L_13_split_by_duration_test.2924",230996,-0.335846145874748,1.63815996981181,-0.792581686348446,7.98070782086967,12.3501556733367
"13",5,5268,5000,42,"050",0,0,"C:\Users\ULB-CO3\Documents\Pietro\bloch_law_landscapes\final\urban_3410_042.tiff","C:\Users\ULB-CO3\Documents\Pietro\bloch_law_landscapes\final\urban_3472_050.tiff",1,0.5730332,0,42.8591811498076,0.0260153720025069,0.0751304034992999,0.0661522596088489,"landscapes",50,"L_13_split_by_duration_test.5268",221256,-0.362014029749731,0.363385010779389,-0.719066603216284,8.56940606286317,12.3070756811465
"13",6,9491,5000,23,"050",0,0,"C:\Users\ULB-CO3\Documents\Pietro\bloch_law_landscapes\final\urban_3721_023.tiff","C:\Users\ULB-CO3\Documents\Pietro\bloch_law_landscapes\final\urban_3329_050.tiff",1,0.4480623,1,22.3439189923562,0.0263876186339174,0.0585238738774884,0.0794962714897523,"landscapes",50,"L_13_split_by_duration_test.9491",218293,-0.369974547195477,-0.346439585354619,-0.586620273836114,9.15809926013049,12.2935934760596
"13",7,17100,5000,19,"050",1,0,"C:\Users\ULB-CO3\Documents\Pietro\bloch_law_landscapes\final\natural_2616_019.tiff","C:\Users\ULB-CO3\Documents\Pietro\bloch_law_landscapes\final\urban_3422_050.tiff",0,0.4160332,1,19.0257308567144,0.0401238127927226,0.075380473390925,0.0674159262742179,"landscapes",50,"L_13_split_by_duration_test.17100",324900,-0.0835598042529444,-0.461248332871556,-0.347978521467249,9.74683374249075,12.6912727216572
"13",8,30808,5000,10,"050",1,1,"C:\Users\ULB-CO3\Documents\Pietro\bloch_law_landscapes\final\natural_3069_010.tiff","C:\Users\ULB-CO3\Documents\Pietro\bloch_law_landscapes\final\natural_3029_050.tiff",1,0.557106,1,9.32319098474769,0.0257703217780005,0.0656749502246047,0.0722409633582728,"landscapes",50,"L_13_split_by_duration_test.30808",308080,-0.128749106796806,-0.796954569196272,0.0819467172595741,10.3355296754947,12.6381147684888
"13",9,55505,5000,5,"050",1,0,"C:\Users\ULB-CO3\Documents\Pietro\bloch_law_landscapes\final\natural_1584_005.tiff","C:\Users\ULB-CO3\Documents\Pietro\bloch_law_landscapes\final\urban_3938_050.tiff",1,0.4450524,1,5.93309717835109,0.0357502184657499,0.0854743803535991,0.0537451969774879,"landscapes",50,"L_13_split_by_duration_test.55505",277525,-0.21083942423008,-0.914251240743208,0.856520952803516,10.9242283857667,12.5336662982008
"13",10,100000,5000,4,"050",1,0,"C:\Users\ULB-CO3\Documents\Pietro\bloch_law_landscapes\final\natural_1505_004.tiff","C:\Users\ULB-CO3\Documents\Pietro\bloch_law_landscapes\final\urban_2264_050.tiff",1,0.48608,1,4.97548269681737,0.0286330520311223,0.0434810314543796,0.0697909384793196,"landscapes",50,"L_13_split_by_duration_test.100000",400000,0.118206938972024,-0.947384539620399,2.25202164562158,11.5129254649702,12.8992198260901
"14",3,1623,5000,99,"050",1,1,"C:\Users\ULB-CO3\Documents\Pietro\bloch_law_landscapes\final\natural_2977_099.tiff","C:\Users\ULB-CO3\Documents\Pietro\bloch_law_landscapes\final\natural_3049_050.tiff",1,0.9090589,1,98.9985002149482,0.0399910136493208,0.0495024232148575,0.0843379030175182,"landscapes",50,"L_14_split_by_duration_test.1623",160677,-0.524768058216114,2.30579594254406,-0.833385066534001,7.39203156751459,11.9871514176492
"14",4,2924,5000,79,"050",1,1,"C:\Users\ULB-CO3\Documents\Pietro\bloch_law_landscapes\final\natural_2906_079.tiff","C:\Users\ULB-CO3\Documents\Pietro\bloch_law_landscapes\final\natural_1829_050.tiff",0,1.0580343,0,78.4230498211417,0.0275570106345941,0.0837360182099411,0.0602720893703621,"landscapes",50,"L_14_split_by_duration_test.2924",230996,-0.335846145874748,1.59388884362579,-0.792581686348446,7.98070782086967,12.3501556733367
"14",5,5268,5000,51,"050",0,0,"C:\Users\ULB-CO3\Documents\Pietro\bloch_law_landscapes\final\urban_3908_051.tiff","C:\Users\ULB-CO3\Documents\Pietro\bloch_law_landscapes\final\urban_3476_050.tiff",0,0.5930504,0,50.1792064544124,0.0304947814602546,0.0832942403274681,0.0480475996079448,"landscapes",50,"L_14_split_by_duration_test.5268",268668,-0.234635004053563,0.616656646581742,-0.719066603216284,8.56940606286317,12.5012316955875
"14",6,9491,5000,31,"050",1,0,"C:\Users\ULB-CO3\Documents\Pietro\bloch_law_landscapes\final\natural_1411_031.tiff","C:\Users\ULB-CO3\Documents\Pietro\bloch_law_landscapes\final\urban_2411_050.tiff",0,0.6980414,0,30.0246451239121,0.0409589303463224,0.068373911622949,0.0430169021178846,"landscapes",50,"L_14_split_by_duration_test.9491",294221,-0.16598326517703,-0.0806877620289119,-0.586620273836114,9.15809926013049,12.5920864646156
"14",7,17100,5000,17,"050",0,1,"C:\Users\ULB-CO3\Documents\Pietro\bloch_law_landscapes\final\urban_3388_017.tiff","C:\Users\ULB-CO3\Documents\Pietro\bloch_law_landscapes\final\natural_2949_050.tiff",0,0.7231524,1,16.3219342011451,0.0227636280347834,0.064584259365523,0.059084227028981,"landscapes",50,"L_14_split_by_duration_test.17100",290700,-0.175442928331425,-0.554799239232793,-0.347978521467249,9.74683374249075,12.580047086547
"14",8,30808,5000,14,"050",1,0,"C:\Users\ULB-CO3\Documents\Pietro\bloch_law_landscapes\final\natural_1487_014.tiff","C:\Users\ULB-CO3\Documents\Pietro\bloch_law_landscapes\final\urban_3471_050.tiff",0,0.3780635,0,13.1427116503425,0.0259175008236926,0.0660058849110063,0.0495437466521619,"landscapes",50,"L_14_split_by_duration_test.30808",431312,0.202331043683878,-0.664799801049836,0.0819467172595741,10.3355296754947,12.97458700511
"14",9,55505,5000,8,"050",0,0,"C:\Users\ULB-CO3\Documents\Pietro\bloch_law_landscapes\final\urban_2163_008.tiff","C:\Users\ULB-CO3\Documents\Pietro\bloch_law_landscapes\final\urban_2224_050.tiff",0,0.5760343,0,7.99668399303109,0.0414466549053132,0.0417722798604455,0.0692594363946267,"landscapes",50,"L_14_split_by_duration_test.55505",444040,0.23652661103098,-0.842851486449273,0.856520952803516,10.9242283857667,13.0036699274466
"14",10,100000,5000,8,"050",0,0,"C:\Users\ULB-CO3\Documents\Pietro\bloch_law_landscapes\final\urban_2512_008.tiff","C:\Users\ULB-CO3\Documents\Pietro\bloch_law_landscapes\final\urban_3373_050.tiff",0,0.6041564,0,7.16098736066058,0.0289887885414912,0.0757096915522379,0.0490955339007812,"landscapes",50,"L_14_split_by_duration_test.100000",800000,1.19286336094256,-0.871766448393715,2.25202164562158,11.5129254649702,13.5923670066501
"15",4,2924,5000,72,"050",1,0,"C:\Users\ULB-CO3\Documents\Pietro\bloch_law_landscapes\final\natural_1737_072.tiff","C:\Users\ULB-CO3\Documents\Pietro\bloch_law_landscapes\final\urban_2380_050.tiff",0,0.5440911,1,72.5778964509743,0.0251706263930138,0.0609429929389682,0.0737114825443086,"landscapes",50,"L_15_split_by_duration_test.2924",210528,-0.39083631498698,1.39164752696714,-0.792581686348446,7.98070782086967,12.2573739398857
"15",5,5268,5000,60,"050",0,0,"C:\Users\ULB-CO3\Documents\Pietro\bloch_law_landscapes\final\urban_3551_060.tiff","C:\Users\ULB-CO3\Documents\Pietro\bloch_law_landscapes\final\urban_3908_050.tiff",0,0.2580545,0,59.6608738708563,0.0498507185577185,0.0944530197973777,0.0464120646274705,"landscapes",50,"L_15_split_by_duration_test.5268",316080,-0.107255978357395,0.944720733352856,-0.719066603216284,8.56940606286317,12.6637506250853
"15",6,9491,5000,25,"050",1,0,"C:\Users\ULB-CO3\Documents\Pietro\bloch_law_landscapes\final\natural_1318_025.tiff","C:\Users\ULB-CO3\Documents\Pietro\bloch_law_landscapes\final\urban_2163_050.tiff",0,0.2930489,1,25.9486236446975,0.0313167828824176,0.0647506847117403,0.0647236156919899,"landscapes",50,"L_15_split_by_duration_test.9491",237275,-0.318976726690865,-0.221717414885002,-0.586620273836114,9.15809926013049,12.3769750849987
"15",7,17100,5000,29,"050",1,0,"C:\Users\ULB-CO3\Documents\Pietro\bloch_law_landscapes\final\natural_2901_029.tiff","C:\Users\ULB-CO3\Documents\Pietro\bloch_law_landscapes\final\urban_3494_050.tiff",0,0.5930403,0,28.3846333531295,0.0263309306544203,0.0573585177922458,0.0575328348354894,"landscapes",50,"L_15_split_by_duration_test.17100",495900,0.375855816139461,-0.137431891541678,-0.347978521467249,9.74683374249075,13.1141295724772
"15",8,30808,5000,10,"050",0,0,"C:\Users\ULB-CO3\Documents\Pietro\bloch_law_landscapes\final\urban_3568_010.tiff","C:\Users\ULB-CO3\Documents\Pietro\bloch_law_landscapes\final\urban_3487_050.tiff",0,0.5080699,1,10.7858636232803,0.0377093478175301,0.0654002734948426,0.0648290723273174,"landscapes",50,"L_15_split_by_duration_test.30808",308080,-0.128749106796806,-0.746346343624776,0.0819467172595741,10.3355296754947,12.6381147684888
"15",9,55505,5000,7,"050",1,0,"C:\Users\ULB-CO3\Documents\Pietro\bloch_law_landscapes\final\natural_2569_007.tiff","C:\Users\ULB-CO3\Documents\Pietro\bloch_law_landscapes\final\urban_1956_050.tiff",0,0.4890483,0,6.17014886103042,0.0274388212969735,0.0659662037227506,0.0489959532285231,"landscapes",50,"L_15_split_by_duration_test.55505",388535,0.0874045992772936,-0.906049292670143,0.856520952803516,10.9242283857667,12.8701385348221
"15",10,100000,5000,7,"050",0,0,"C:\Users\ULB-CO3\Documents\Pietro\bloch_law_landscapes\final\urban_3312_007.tiff","C:\Users\ULB-CO3\Documents\Pietro\bloch_law_landscapes\final\urban_3798_050.tiff",1,0.4600342,0,6.05438507259033,0.0253598404458192,0.074313347657839,0.0543485831962422,"landscapes",50,"L_15_split_by_duration_test.100000",700000,0.924199255449928,-0.910054700144138,2.25202164562158,11.5129254649702,13.4588356140255
"16",1,500,5000,86,"050",0,0,"C:\Users\ULB-CO3\Documents\Pietro\bloch_law_landscapes\final\urban_2410_086.tiff","C:\Users\ULB-CO3\Documents\Pietro\bloch_law_landscapes\final\urban_3835_050.tiff",0,0.5260472,1,86.9815111931843,0.0445252017480701,0.0735690898503979,0.0741946915388238,"landscapes",50,"L_16_split_by_duration_test.500",43000,-0.840923917636681,1.890010157617,-0.868605816686483,6.21460809842219,10.6689553946757
"16",4,2924,5000,65,"050",0,1,"C:\Users\ULB-CO3\Documents\Pietro\bloch_law_landscapes\final\urban_2172_065.tiff","C:\Users\ULB-CO3\Documents\Pietro\bloch_law_landscapes\final\natural_1746_050.tiff",1,0.4791082,0,64.114227100403,0.0380861064787658,0.0607081527363805,0.0735119680670579,"landscapes",50,"L_16_split_by_duration_test.2924",190060,-0.445826484099213,1.09880600086463,-0.792581686348446,7.98070782086967,12.1550950907653
"16",5,5268,5000,55,"050",1,0,"C:\Users\ULB-CO3\Documents\Pietro\bloch_law_landscapes\final\natural_1277_055.tiff","C:\Users\ULB-CO3\Documents\Pietro\bloch_law_landscapes\final\urban_3618_050.tiff",0,0.9710977,1,54.0882475741856,0.0416531055471524,0.0833760080796931,0.0447045672818799,"landscapes",50,"L_16_split_by_duration_test.5268",289740,-0.178022103744155,0.751908807281352,-0.719066603216284,8.56940606286317,12.5767392480956
"16",6,9491,5000,26,"050",0,1,"C:\Users\ULB-CO3\Documents\Pietro\bloch_law_landscapes\final\urban_3614_026.tiff","C:\Users\ULB-CO3\Documents\Pietro\bloch_law_landscapes\final\natural_2906_050.tiff",0,0.4660437,0,26.3787639312914,0.0246556311802618,0.061568874296932,0.054626852753573,"landscapes",50,"L_16_split_by_duration_test.9491",246766,-0.29347781643856,-0.206834633818439,-0.586620273836114,9.15809926013049,12.416195798152
"16",7,17100,5000,20,"050",1,1,"C:\Users\ULB-CO3\Documents\Pietro\bloch_law_landscapes\final\natural_1777_020.tiff","C:\Users\ULB-CO3\Documents\Pietro\bloch_law_landscapes\final\natural_1752_050.tiff",0,1.2610695,1,19.3544802716955,0.0271727590856991,0.0570572048953296,0.0845370644737919,"landscapes",50,"L_16_split_by_duration_test.17100",342000,-0.0376182422137039,-0.449873658790996,-0.347978521467249,9.74683374249075,12.7425660160447
"16",8,30808,5000,1,"050",0,0,"C:\Users\ULB-CO3\Documents\Pietro\bloch_law_landscapes\final\urban_3769_001.tiff","C:\Users\ULB-CO3\Documents\Pietro\bloch_law_landscapes\final\urban_3538_050.tiff",1,0.2520674,1,1.84298614133159,0.048308619264408,0.094829302631426,0.0512113042467267,"landscapes",50,"L_16_split_by_duration_test.30808",30808,-0.873679445378343,-1.05576838991311,0.0819467172595741,10.3355296754947,10.3355296754947
"18",4,2924,5000,80,"050",0,1,"C:\Users\ULB-CO3\Documents\Pietro\bloch_law_landscapes\final\urban_3598_080.tiff","C:\Users\ULB-CO3\Documents\Pietro\bloch_law_landscapes\final\natural_1487_050.tiff",0,0.2750318,1,80.9660363496278,0.026691200304872,0.0459809979198915,0.0696908751634788,"landscapes",50,"L_18_split_by_duration_test.2924",233920,-0.327990407430143,1.68187574682513,-0.792581686348446,7.98070782086967,12.3627344555436
