"subj","current_staircase","duration","contrast","stimulus_type","stimulus_filename","RT","resp","correct","updated_threshold","updated_slope","updated_lapse","updated_guess","task","trials","group_id","energy"
"01",5,5268,83,0,"C:\Users\ULB-CO3\Documents\Pietro\bloch_law_faces\final\neutral_Rafd090_27_Caucasian_female_neutral_frontal_083.tiff",0.3373854,0,1,82.17526773987,0.0467885922600302,0.0511708644478117,0.5,"faces",50,"F_01_split_by_duration.5268",437244
"01",6,9491,82,1,"C:\Users\ULB-CO3\Documents\Pietro\bloch_law_faces\final\angry_Rafd090_07_Caucasian_male_angry_frontal_082.tiff",0.4220901,1,1,81.6327371745221,0.0511155735990145,0.0480773886209854,0.5,"faces",50,"F_01_split_by_duration.9491",778262
"01",7,17100,97,1,"C:\Users\ULB-CO3\Documents\Pietro\bloch_law_faces\final\angry_Rafd090_27_Caucasian_female_angry_frontal_097.tiff",0.5110941,0,0,96.5687914094811,0.0486923966429082,0.0537037966662172,0.5,"faces",50,"F_01_split_by_duration.17100",1658700
"01",8,30808,71,1,"C:\Users\ULB-CO3\Documents\Pietro\bloch_law_faces\final\angry_Rafd090_25_Caucasian_male_angry_frontal_071.tiff",0.270082,1,1,70.7824056356173,0.05103779495526,0.0469515730913189,0.5,"faces",50,"F_01_split_by_duration.30808",2187368
"01",9,55505,64,0,"C:\Users\ULB-CO3\Documents\Pietro\bloch_law_faces\final\neutral_Rafd090_19_Caucasian_female_neutral_frontal_064.tiff",0.3770697,0,1,61.6124778079757,0.0532213958715787,0.0776110834088849,0.5,"faces",50,"F_01_split_by_duration.55505",3552320
"01",10,1e+05,80,1,"C:\Users\ULB-CO3\Documents\Pietro\bloch_law_faces\final\angry_Rafd090_16_Caucasian_female_angry_frontal_080.tiff",0.6340514,1,1,79.865526454334,0.0524897807197736,0.0623443695674969,0.5,"faces",50,"F_01_split_by_duration.1e+05",8e+06
"02",2,901,99,1,"C:\Users\ULB-CO3\Documents\Pietro\bloch_law_faces\final\angry_Rafd090_26_Caucasian_female_angry_frontal_099.tiff",0.7180594,1,1,98.8385272409848,0.0508357061062318,0.0531657107318039,0.5,"faces",50,"F_02_split_by_duration.901",89199
"02",3,1623,52,0,"C:\Users\ULB-CO3\Documents\Pietro\bloch_law_faces\final\neutral_Rafd090_15_Caucasian_male_neutral_frontal_052.tiff",0.6960426,0,1,42.9869097894721,0.0551573979086684,0.0860113466036685,0.5,"faces",50,"F_02_split_by_duration.1623",84396
"02",4,2924,55,0,"C:\Users\ULB-CO3\Documents\Pietro\bloch_law_faces\final\neutral_Rafd090_20_Caucasian_male_neutral_frontal_055.tiff",1.3000329,1,0,55.8963555498998,0.0485670726979952,0.0530812330097779,0.5,"faces",50,"F_02_split_by_duration.2924",160820
"02",5,5268,49,1,"C:\Users\ULB-CO3\Documents\Pietro\bloch_law_faces\final\angry_Rafd090_18_Caucasian_female_angry_frontal_049.tiff",0.7310725,1,1,48.0861601909963,0.0608284317082643,0.0382440228769757,0.5,"faces",50,"F_02_split_by_duration.5268",258132
"02",6,9491,42,1,"C:\Users\ULB-CO3\Documents\Pietro\bloch_law_faces\final\angry_Rafd090_10_Caucasian_male_angry_frontal_042.tiff",0.66905,1,1,40.7079347625442,0.0576068336288596,0.0738253036386881,0.5,"faces",50,"F_02_split_by_duration.9491",398622
"02",7,17100,38,1,"C:\Users\ULB-CO3\Documents\Pietro\bloch_law_faces\final\angry_Rafd090_15_Caucasian_male_angry_frontal_038.tiff",0.5160853,1,1,37.3708786888123,0.0497788408484309,0.0721698244852318,0.5,"faces",50,"F_02_split_by_duration.17100",649800
"02",8,30808,35,0,"C:\Users\ULB-CO3\Documents\Pietro\bloch_law_faces\final\neutral_Rafd090_08_Caucasian_female_neutral_frontal_035.tiff",0.6090355,0,1,32.3661230917925,0.0531468399000599,0.0744235265786098,0.5,"faces",50,"F_02_split_by_duration.30808",1078280
"02",9,55505,32,0,"C:\Users\ULB-CO3\Documents\Pietro\bloch_law_faces\final\neutral_Rafd090_02_Caucasian_female_neutral_frontal_032.tiff",0.5070695,0,1,31.2350811111167,0.0548772094522698,0.0673571852355345,0.5,"faces",50,"F_02_split_by_duration.55505",1776160
"02",10,1e+05,26,1,"C:\Users\ULB-CO3\Documents\Pietro\bloch_law_faces\final\angry_Rafd090_02_Caucasian_female_angry_frontal_026.tiff",0.9120992,0,0,27.5699676427831,0.0532539904644238,0.044316204905483,0.5,"faces",50,"F_02_split_by_duration.1e+05",2600000
"03",3,1623,86,1,"C:\Users\ULB-CO3\Documents\Pietro\bloch_law_faces\final\angry_Rafd090_01_Caucasian_female_angry_frontal_086.tiff",0.4400849,1,1,82.1822852335842,0.0537721491519118,0.0816678421168593,0.5,"faces",50,"F_03_split_by_duration.1623",139578
"03",4,2924,75,0,"C:\Users\ULB-CO3\Documents\Pietro\bloch_law_faces\final\neutral_Rafd090_08_Caucasian_female_neutral_frontal_075.tiff",0.3890359,0,1,74.1588587362845,0.0517887203381678,0.0564007042336433,0.5,"faces",50,"F_03_split_by_duration.2924",219300
"03",5,5268,54,0,"C:\Users\ULB-CO3\Documents\Pietro\bloch_law_faces\final\neutral_Rafd090_02_Caucasian_female_neutral_frontal_054.tiff",0.6000523,0,1,51.1300117626723,0.0535330566899764,0.0590233687215499,0.5,"faces",50,"F_03_split_by_duration.5268",284472
"03",6,9491,52,1,"C:\Users\ULB-CO3\Documents\Pietro\bloch_law_faces\final\angry_Rafd090_31_Caucasian_female_angry_frontal_052.tiff",0.2780523,1,1,51.8001643629035,0.0477338912685352,0.0486234262796619,0.5,"faces",50,"F_03_split_by_duration.9491",493532
"03",7,17100,51,0,"C:\Users\ULB-CO3\Documents\Pietro\bloch_law_faces\final\neutral_Rafd090_24_Caucasian_male_neutral_frontal_051.tiff",0.9970824,0,1,50.1604015761639,0.0519122246400148,0.0449100234317734,0.5,"faces",50,"F_03_split_by_duration.17100",872100
"03",8,30808,48,0,"C:\Users\ULB-CO3\Documents\Pietro\bloch_law_faces\final\neutral_Rafd090_05_Caucasian_male_neutral_frontal_048.tiff",0.5310318,1,0,48.1989838031711,0.0496748603186498,0.0476171617453916,0.5,"faces",50,"F_03_split_by_duration.30808",1478784
"03",9,55505,34,1,"C:\Users\ULB-CO3\Documents\Pietro\bloch_law_faces\final\angry_Rafd090_01_Caucasian_female_angry_frontal_034.tiff",0.4520343,0,0,34.359870657697,0.0518685704849749,0.0765822942415892,0.5,"faces",50,"F_03_split_by_duration.55505",1887170
"03",10,1e+05,28,0,"C:\Users\ULB-CO3\Documents\Pietro\bloch_law_faces\final\neutral_Rafd090_07_Caucasian_male_neutral_frontal_028.tiff",0.7200687,0,1,27.2310725992994,0.0501991400621068,0.0439653206121536,0.5,"faces",50,"F_03_split_by_duration.1e+05",2800000
"04",3,1623,93,0,"C:\Users\ULB-CO3\Documents\Pietro\bloch_law_faces\final\neutral_Rafd090_02_Caucasian_female_neutral_frontal_093.tiff",0.001084,0,1,92.0995091489994,0.0513220316310575,0.0552335190286904,0.5,"faces",50,"F_04_split_by_duration.1623",150939
"04",4,2924,83,1,"C:\Users\ULB-CO3\Documents\Pietro\bloch_law_faces\final\angry_Rafd090_15_Caucasian_male_angry_frontal_083.tiff",0.3751912,1,1,82.3850502612822,0.0550482965827302,0.0614399691939784,0.5,"faces",50,"F_04_split_by_duration.2924",242692
"04",5,5268,84,0,"C:\Users\ULB-CO3\Documents\Pietro\bloch_law_faces\final\neutral_Rafd090_28_Caucasian_male_neutral_frontal_084.tiff",0.7140555,0,1,82.018545855073,0.0544809554730476,0.056001044315965,0.5,"faces",50,"F_04_split_by_duration.5268",442512
"04",6,9491,95,1,"C:\Users\ULB-CO3\Documents\Pietro\bloch_law_faces\final\angry_Rafd090_16_Caucasian_female_angry_frontal_095.tiff",0.3910796,1,1,94.9609485352213,0.0544009876356883,0.0496670926225718,0.5,"faces",50,"F_04_split_by_duration.9491",901645
"04",7,17100,63,1,"C:\Users\ULB-CO3\Documents\Pietro\bloch_law_faces\final\angry_Rafd090_09_Caucasian_male_angry_frontal_063.tiff",1.0570511,1,1,62.3466305104029,0.0483156163917669,0.0613792420174877,0.5,"faces",50,"F_04_split_by_duration.17100",1077300
"04",8,30808,82,1,"C:\Users\ULB-CO3\Documents\Pietro\bloch_law_faces\final\angry_Rafd090_12_Caucasian_female_angry_frontal_082.tiff",0.0010866,0,0,81.4263998229687,0.0470252700971053,0.0543255401198557,0.5,"faces",50,"F_04_split_by_duration.30808",2526256
"04",9,55505,83,1,"C:\Users\ULB-CO3\Documents\Pietro\bloch_law_faces\final\angry_Rafd090_01_Caucasian_female_angry_frontal_083.tiff",0.398081,1,1,82.4624592280715,0.0581496730369653,0.0454579139676533,0.5,"faces",50,"F_04_split_by_duration.55505",4606915
"04",10,1e+05,99,0,"C:\Users\ULB-CO3\Documents\Pietro\bloch_law_faces\final\neutral_Rafd090_19_Caucasian_female_neutral_frontal_099.tiff",0.3720581,0,1,98.7383107471879,0.0510042446221229,0.0527843536684621,0.5,"faces",50,"F_04_split_by_duration.1e+05",9900000
"05",5,5268,78,1,"C:\Users\ULB-CO3\Documents\Pietro\bloch_law_faces\final\angry_Rafd090_12_Caucasian_female_angry_frontal_078.tiff",0.4881745,1,1,76.2246985993609,0.0546298730074286,0.0486700156154373,0.5,"faces",50,"F_05_split_by_duration.5268",410904
"05",6,9491,53,1,"C:\Users\ULB-CO3\Documents\Pietro\bloch_law_faces\final\angry_Rafd090_18_Caucasian_female_angry_frontal_053.tiff",0.4940519,1,1,43.6398448357146,0.0529871245752932,0.0814496092763587,0.5,"faces",50,"F_05_split_by_duration.9491",503023
"05",7,17100,29,0,"C:\Users\ULB-CO3\Documents\Pietro\bloch_law_faces\final\neutral_Rafd090_25_Caucasian_male_neutral_frontal_029.tiff",0.4760374,0,1,28.4646228049461,0.0494956685610253,0.0623238603173348,0.5,"faces",50,"F_05_split_by_duration.17100",495900
"05",8,30808,12,1,"C:\Users\ULB-CO3\Documents\Pietro\bloch_law_faces\final\angry_Rafd090_02_Caucasian_female_angry_frontal_012.tiff",0.4770727,0,0,12.4223143016212,0.0502721513392583,0.042107233420139,0.5,"faces",50,"F_05_split_by_duration.30808",369696
"05",9,55505,14,0,"C:\Users\ULB-CO3\Documents\Pietro\bloch_law_faces\final\neutral_Rafd090_03_Caucasian_male_neutral_frontal_014.tiff",0.9200725,0,1,13.9382060277222,0.0514153676838715,0.0444680086935252,0.5,"faces",50,"F_05_split_by_duration.55505",777070
"05",10,1e+05,12,1,"C:\Users\ULB-CO3\Documents\Pietro\bloch_law_faces\final\angry_Rafd090_25_Caucasian_male_angry_frontal_012.tiff",0.3450713,1,1,10.9752562402215,0.0564462609669362,0.0721042401682734,0.5,"faces",50,"F_05_split_by_duration.1e+05",1200000
"06",4,2924,97,1,"C:\Users\ULB-CO3\Documents\Pietro\bloch_law_faces\final\angry_Rafd090_21_Caucasian_male_angry_frontal_097.tiff",0.4550712,0,0,97.7133365591705,0.0533163058892613,0.0542524459993912,0.5,"faces",50,"F_06_split_by_duration.2924",283628
"06",5,5268,98,1,"C:\Users\ULB-CO3\Documents\Pietro\bloch_law_faces\final\angry_Rafd090_25_Caucasian_male_angry_frontal_098.tiff",0.4690508,0,0,97.4104952950694,0.0466851930857293,0.054902424292113,0.5,"faces",50,"F_06_split_by_duration.5268",516264
"06",6,9491,75,1,"C:\Users\ULB-CO3\Documents\Pietro\bloch_law_faces\final\angry_Rafd090_05_Caucasian_male_angry_frontal_075.tiff",0.3990339,1,1,74.1592866774822,0.0547212518628519,0.0521294243183665,0.5,"faces",50,"F_06_split_by_duration.9491",711825
"06",7,17100,56,0,"C:\Users\ULB-CO3\Documents\Pietro\bloch_law_faces\final\neutral_Rafd090_22_Caucasian_female_neutral_frontal_056.tiff",0.3461207,0,1,55.7590442547356,0.0478642710706383,0.0497906368518959,0.5,"faces",50,"F_06_split_by_duration.17100",957600
"06",8,30808,36,0,"C:\Users\ULB-CO3\Documents\Pietro\bloch_law_faces\final\neutral_Rafd090_31_Caucasian_female_neutral_frontal_036.tiff",0.3730541,0,1,35.1437100867564,0.0530658890804288,0.0736208166241319,0.5,"faces",50,"F_06_split_by_duration.30808",1109088
"06",9,55505,13,0,"C:\Users\ULB-CO3\Documents\Pietro\bloch_law_faces\final\neutral_Rafd090_08_Caucasian_female_neutral_frontal_013.tiff",0.3880439,0,1,12.6816019599976,0.0505709970365977,0.0697688618692375,0.5,"faces",50,"F_06_split_by_duration.55505",721565
"06",10,1e+05,22,0,"C:\Users\ULB-CO3\Documents\Pietro\bloch_law_faces\final\neutral_Rafd090_09_Caucasian_male_neutral_frontal_022.tiff",0.6470453,1,0,23.2576197004681,0.0526606907153711,0.0757224424007831,0.5,"faces",50,"F_06_split_by_duration.1e+05",2200000
"07",5,5268,85,1,"C:\Users\ULB-CO3\Documents\Pietro\bloch_law_faces\final\angry_Rafd090_03_Caucasian_male_angry_frontal_085.tiff",0.397071,0,0,89.8408825896199,0.0551308181133251,0.0529416763973224,0.5,"faces",50,"F_07_split_by_duration.5268",447780
"07",6,9491,58,1,"C:\Users\ULB-CO3\Documents\Pietro\bloch_law_faces\final\angry_Rafd090_19_Caucasian_female_angry_frontal_058.tiff",0.4580582,0,0,58.302782080196,0.0541459695976078,0.0676945574653418,0.5,"faces",50,"F_07_split_by_duration.9491",550478
"07",7,17100,24,1,"C:\Users\ULB-CO3\Documents\Pietro\bloch_law_faces\final\angry_Rafd090_24_Caucasian_male_angry_frontal_024.tiff",0.4550506,1,1,23.7615424704228,0.0603140550642728,0.0571176318984607,0.5,"faces",50,"F_07_split_by_duration.17100",410400
"07",8,30808,18,0,"C:\Users\ULB-CO3\Documents\Pietro\bloch_law_faces\final\neutral_Rafd090_27_Caucasian_female_neutral_frontal_018.tiff",0.5490512,0,1,17.2130281301511,0.0470326919638028,0.0555492456649406,0.5,"faces",50,"F_07_split_by_duration.30808",554544
"07",9,55505,12,0,"C:\Users\ULB-CO3\Documents\Pietro\bloch_law_faces\final\neutral_Rafd090_19_Caucasian_female_neutral_frontal_012.tiff",0.4750493,0,1,10.7453758684365,0.0549348788001904,0.0748569607161335,0.5,"faces",50,"F_07_split_by_duration.55505",666060
"07",10,1e+05,12,1,"C:\Users\ULB-CO3\Documents\Pietro\bloch_law_faces\final\angry_Rafd090_02_Caucasian_female_angry_frontal_012.tiff",0.5580322,0,0,12.6354035171649,0.0477675837823022,0.0501281087868521,0.5,"faces",50,"F_07_split_by_duration.1e+05",1200000
"08",8,30808,93,0,"C:\Users\ULB-CO3\Documents\Pietro\bloch_law_faces\final\neutral_Rafd090_27_Caucasian_female_neutral_frontal_093.tiff",0.4090535,0,1,92.4738891475759,0.0518086537396534,0.0667280508453256,0.5,"faces",50,"F_08_split_by_duration.30808",2865144
"09",2,901,98,1,"C:\Users\ULB-CO3\Documents\Pietro\bloch_law_faces\final\angry_Rafd090_10_Caucasian_male_angry_frontal_098.tiff",1.0610351,0,0,98.6454603143985,0.0553597394769311,0.0528932581531844,0.5,"faces",50,"F_09_split_by_duration.901",88298
"09",5,5268,89,1,"C:\Users\ULB-CO3\Documents\Pietro\bloch_law_faces\final\angry_Rafd090_22_Caucasian_female_angry_frontal_089.tiff",0.3760358,1,1,87.833670818661,0.0506728733527018,0.0781014046056126,0.5,"faces",50,"F_09_split_by_duration.5268",468852
"09",6,9491,65,1,"C:\Users\ULB-CO3\Documents\Pietro\bloch_law_faces\final\angry_Rafd090_01_Caucasian_female_angry_frontal_065.tiff",0.3520383,1,1,62.6234476910425,0.0549604893835631,0.051846856533474,0.5,"faces",50,"F_09_split_by_duration.9491",616915
"09",7,17100,48,0,"C:\Users\ULB-CO3\Documents\Pietro\bloch_law_faces\final\neutral_Rafd090_15_Caucasian_male_neutral_frontal_048.tiff",0.2210345,0,1,47.9151846879529,0.056728287459644,0.0603636685238753,0.5,"faces",50,"F_09_split_by_duration.17100",820800
"09",8,30808,38,1,"C:\Users\ULB-CO3\Documents\Pietro\bloch_law_faces\final\angry_Rafd090_31_Caucasian_female_angry_frontal_038.tiff",0.3800981,1,1,34.2957536555793,0.0546010429413848,0.0662124429305515,0.5,"faces",50,"F_09_split_by_duration.30808",1170704
"09",9,55505,12,0,"C:\Users\ULB-CO3\Documents\Pietro\bloch_law_faces\final\neutral_Rafd090_25_Caucasian_male_neutral_frontal_012.tiff",0.3660915,0,1,11.2590271495184,0.0481061880708356,0.0462256694737699,0.5,"faces",50,"F_09_split_by_duration.55505",666060
"09",10,1e+05,12,0,"C:\Users\ULB-CO3\Documents\Pietro\bloch_law_faces\final\neutral_Rafd090_31_Caucasian_female_neutral_frontal_012.tiff",0.3410909,0,1,11.7039641440984,0.049724729847465,0.070562616118085,0.5,"faces",50,"F_09_split_by_duration.1e+05",1200000
"10",6,9491,85,1,"C:\Users\ULB-CO3\Documents\Pietro\bloch_law_faces\final\angry_Rafd090_22_Caucasian_female_angry_frontal_085.tiff",0.4880505,1,1,85.181830689942,0.0490583129338644,0.054461316696293,0.5,"faces",50,"F_10_split_by_duration.9491",806735
"10",7,17100,89,0,"C:\Users\ULB-CO3\Documents\Pietro\bloch_law_faces\final\neutral_Rafd090_02_Caucasian_female_neutral_frontal_089.tiff",0.2980466,0,1,88.4254574344937,0.0484638292498468,0.0640269640754054,0.5,"faces",50,"F_10_split_by_duration.17100",1521900
"10",8,30808,88,1,"C:\Users\ULB-CO3\Documents\Pietro\bloch_law_faces\final\angry_Rafd090_23_Caucasian_male_angry_frontal_088.tiff",0.983044,1,1,87.7037530809727,0.0507249403002107,0.052526683601342,0.5,"faces",50,"F_10_split_by_duration.30808",2711104
"10",10,1e+05,28,0,"C:\Users\ULB-CO3\Documents\Pietro\bloch_law_faces\final\neutral_Rafd090_21_Caucasian_male_neutral_frontal_028.tiff",0.4270381,0,1,27.3188311681392,0.0516747804393052,0.0562755378071432,0.5,"faces",50,"F_10_split_by_duration.1e+05",2800000
"12",5,5268,89,1,"C:\Users\ULB-CO3\Documents\Pietro\bloch_law_faces\final\angry_Rafd090_25_Caucasian_male_angry_frontal_089.tiff",0.2650365,0,0,90.046706886632,0.0505599206119565,0.0779432813691051,0.5,"faces",50,"F_12_split_by_duration.5268",468852
"12",6,9491,50,1,"C:\Users\ULB-CO3\Documents\Pietro\bloch_law_faces\final\angry_Rafd090_19_Caucasian_female_angry_frontal_050.tiff",0.248112,0,0,50.2315775377941,0.0550135670208427,0.0734876856328484,0.5,"faces",50,"F_12_split_by_duration.9491",474550
"12",7,17100,52,0,"C:\Users\ULB-CO3\Documents\Pietro\bloch_law_faces\final\neutral_Rafd090_04_Caucasian_female_neutral_frontal_052.tiff",0.4430427,1,0,53.3387041990063,0.0513753219816236,0.0689927903413406,0.5,"faces",50,"F_12_split_by_duration.17100",889200
"12",8,30808,20,0,"C:\Users\ULB-CO3\Documents\Pietro\bloch_law_faces\final\neutral_Rafd090_27_Caucasian_female_neutral_frontal_020.tiff",0.4840575,1,0,26.1186547343095,0.0545181505638368,0.0795266683901942,0.5,"faces",50,"F_12_split_by_duration.30808",616160
"12",9,55505,13,0,"C:\Users\ULB-CO3\Documents\Pietro\bloch_law_faces\final\neutral_Rafd090_09_Caucasian_male_neutral_frontal_013.tiff",0.4310599,0,1,12.9248031665928,0.0527699146921631,0.036420987915612,0.5,"faces",50,"F_12_split_by_duration.55505",721565
"12",10,1e+05,30,1,"C:\Users\ULB-CO3\Documents\Pietro\bloch_law_faces\final\angry_Rafd090_25_Caucasian_male_angry_frontal_030.tiff",0.6611127,1,1,30.4574748372296,0.0546328621561057,0.0505544298561989,0.5,"faces",50,"F_12_split_by_duration.1e+05",3e+06
"13",1,500,98,0,"C:\Users\ULB-CO3\Documents\Pietro\bloch_law_faces\final\neutral_Rafd090_18_Caucasian_female_neutral_frontal_098.tiff",0.5160626,1,0,98.2920400573742,0.0524507987654868,0.0550721209745776,0.5,"faces",50,"F_13_split_by_duration.500",49000
"13",6,9491,31,0,"C:\Users\ULB-CO3\Documents\Pietro\bloch_law_faces\final\neutral_Rafd090_20_Caucasian_male_neutral_frontal_031.tiff",0.3390532,1,0,31.3117709562258,0.0493113368563564,0.0679580192474149,0.5,"faces",50,"F_13_split_by_duration.9491",294221
"13",7,17100,35,1,"C:\Users\ULB-CO3\Documents\Pietro\bloch_law_faces\final\angry_Rafd090_04_Caucasian_female_angry_frontal_035.tiff",0.2150458,1,1,32.7137145089432,0.055246369633536,0.083230738023933,0.5,"faces",50,"F_13_split_by_duration.17100",598500
"13",8,30808,15,0,"C:\Users\ULB-CO3\Documents\Pietro\bloch_law_faces\final\neutral_Rafd090_12_Caucasian_female_neutral_frontal_015.tiff",0.3720307,0,1,13.308141821208,0.0544294653484196,0.0841888573925521,0.5,"faces",50,"F_13_split_by_duration.30808",462120
"13",9,55505,24,1,"C:\Users\ULB-CO3\Documents\Pietro\bloch_law_faces\final\angry_Rafd090_07_Caucasian_male_angry_frontal_024.tiff",0.3121002,1,1,23.7180708384933,0.0528326611146318,0.0407792112382772,0.5,"faces",50,"F_13_split_by_duration.55505",1332120
"13",10,1e+05,9,0,"C:\Users\ULB-CO3\Documents\Pietro\bloch_law_faces\final\neutral_Rafd090_28_Caucasian_male_neutral_frontal_009.tiff",0.6590562,1,0,9.22564641446659,0.0610663239726875,0.0632799545567642,0.5,"faces",50,"F_13_split_by_duration.1e+05",9e+05
"14",7,17100,65,1,"C:\Users\ULB-CO3\Documents\Pietro\bloch_law_faces\final\angry_Rafd090_02_Caucasian_female_angry_frontal_065.tiff",0.3070458,0,0,65.1116439885262,0.05800214195236,0.0401625867817878,0.5,"faces",50,"F_14_split_by_duration.17100",1111500
"14",8,30808,48,1,"C:\Users\ULB-CO3\Documents\Pietro\bloch_law_faces\final\angry_Rafd090_26_Caucasian_female_angry_frontal_048.tiff",0.4560736,0,0,47.0616911145002,0.0631640200019017,0.0391512288393743,0.5,"faces",50,"F_14_split_by_duration.30808",1478784
"14",9,55505,16,0,"C:\Users\ULB-CO3\Documents\Pietro\bloch_law_faces\final\neutral_Rafd090_04_Caucasian_female_neutral_frontal_016.tiff",0.3330874,0,1,15.8125217673595,0.0561012487687314,0.0587447300779409,0.5,"faces",50,"F_14_split_by_duration.55505",888080
"14",10,1e+05,9,1,"C:\Users\ULB-CO3\Documents\Pietro\bloch_law_faces\final\angry_Rafd090_19_Caucasian_female_angry_frontal_009.tiff",0.0640363,0,0,10.5524613270718,0.0537546248627881,0.074391052856213,0.5,"faces",50,"F_14_split_by_duration.1e+05",9e+05
"15",5,5268,95,1,"C:\Users\ULB-CO3\Documents\Pietro\bloch_law_faces\final\angry_Rafd090_02_Caucasian_female_angry_frontal_095.tiff",0.4000362,1,1,95.5998892212085,0.0563425853376889,0.04626226678826,0.5,"faces",50,"F_15_split_by_duration.5268",500460
"15",6,9491,53,0,"C:\Users\ULB-CO3\Documents\Pietro\bloch_law_faces\final\neutral_Rafd090_23_Caucasian_male_neutral_frontal_053.tiff",0.4260527,1,0,52.9511204690182,0.0570167294886889,0.0395478554454752,0.5,"faces",50,"F_15_split_by_duration.9491",503023
"15",7,17100,25,1,"C:\Users\ULB-CO3\Documents\Pietro\bloch_law_faces\final\angry_Rafd090_21_Caucasian_male_angry_frontal_025.tiff",0.5520765,1,1,23.414125997789,0.0564999752936552,0.0809876735696429,0.5,"faces",50,"F_15_split_by_duration.17100",427500
"15",8,30808,53,0,"C:\Users\ULB-CO3\Documents\Pietro\bloch_law_faces\final\neutral_Rafd090_09_Caucasian_male_neutral_frontal_053.tiff",0.3270562,0,1,52.936824719467,0.0595548534621309,0.0383802630607531,0.5,"faces",50,"F_15_split_by_duration.30808",1632824
"15",9,55505,12,1,"C:\Users\ULB-CO3\Documents\Pietro\bloch_law_faces\final\angry_Rafd090_18_Caucasian_female_angry_frontal_012.tiff",0.5430293,1,1,10.4815660408264,0.0531190622219377,0.0764813486468582,0.5,"faces",50,"F_15_split_by_duration.55505",666060
"15",10,1e+05,15,1,"C:\Users\ULB-CO3\Documents\Pietro\bloch_law_faces\final\angry_Rafd090_15_Caucasian_male_angry_frontal_015.tiff",0.4440282,1,1,14.2875548851654,0.0550580403832984,0.0780630446914857,0.5,"faces",50,"F_15_split_by_duration.1e+05",1500000
"16",5,5268,56,1,"C:\Users\ULB-CO3\Documents\Pietro\bloch_law_faces\final\angry_Rafd090_26_Caucasian_female_angry_frontal_056.tiff",0.4100398,0,0,56.5266672775831,0.050903185037079,0.0596716019520884,0.5,"faces",50,"F_16_split_by_duration.5268",295008
"16",6,9491,55,0,"C:\Users\ULB-CO3\Documents\Pietro\bloch_law_faces\final\neutral_Rafd090_21_Caucasian_male_neutral_frontal_055.tiff",0.4060627,0,1,53.5324112574762,0.0537724799299472,0.0734807500840147,0.5,"faces",50,"F_16_split_by_duration.9491",522005
"16",7,17100,45,0,"C:\Users\ULB-CO3\Documents\Pietro\bloch_law_faces\final\neutral_Rafd090_12_Caucasian_female_neutral_frontal_045.tiff",0.2470543,0,1,44.595836061903,0.051911106644362,0.0628625545351233,0.5,"faces",50,"F_16_split_by_duration.17100",769500
"16",8,30808,24,1,"C:\Users\ULB-CO3\Documents\Pietro\bloch_law_faces\final\angry_Rafd090_18_Caucasian_female_angry_frontal_024.tiff",0.5430505,0,0,24.5281714799589,0.0514212267720329,0.0432057640620504,0.5,"faces",50,"F_16_split_by_duration.30808",739392
"16",9,55505,27,0,"C:\Users\ULB-CO3\Documents\Pietro\bloch_law_faces\final\neutral_Rafd090_14_Caucasian_female_neutral_frontal_027.tiff",0.624076,0,1,25.8373994972522,0.0527675080412157,0.0790088749040483,0.5,"faces",50,"F_16_split_by_duration.55505",1498635
"16",10,1e+05,11,1,"C:\Users\ULB-CO3\Documents\Pietro\bloch_law_faces\final\angry_Rafd090_21_Caucasian_male_angry_frontal_011.tiff",0.442109,0,0,11.6913447772476,0.0455962448443201,0.0553710093866561,0.5,"faces",50,"F_16_split_by_duration.1e+05",1100000
"17",6,9491,94,1,"C:\Users\ULB-CO3\Documents\Pietro\bloch_law_faces\final\angry_Rafd090_12_Caucasian_female_angry_frontal_094.tiff",0.3690366,0,0,94.0515238287729,0.0518591677543901,0.0486186312806278,0.5,"faces",50,"F_17_split_by_duration.9491",892154
"17",7,17100,78,0,"C:\Users\ULB-CO3\Documents\Pietro\bloch_law_faces\final\neutral_Rafd090_14_Caucasian_female_neutral_frontal_078.tiff",1.1690317,0,1,76.6141323832478,0.0499835220905867,0.0750605834488308,0.5,"faces",50,"F_17_split_by_duration.17100",1333800
"17",8,30808,53,1,"C:\Users\ULB-CO3\Documents\Pietro\bloch_law_faces\final\angry_Rafd090_19_Caucasian_female_angry_frontal_053.tiff",0.4510526,1,1,52.1761653834122,0.0531196217914315,0.0630218988259946,0.5,"faces",50,"F_17_split_by_duration.30808",1632824
"17",9,55505,32,0,"C:\Users\ULB-CO3\Documents\Pietro\bloch_law_faces\final\neutral_Rafd090_03_Caucasian_male_neutral_frontal_032.tiff",0.4010511,0,1,30.8703854514321,0.0518448892734211,0.0604129065724713,0.5,"faces",50,"F_17_split_by_duration.55505",1776160
"17",10,1e+05,22,1,"C:\Users\ULB-CO3\Documents\Pietro\bloch_law_faces\final\angry_Rafd090_16_Caucasian_female_angry_frontal_022.tiff",0.6370414,1,1,21.1072303609336,0.0508098323736055,0.0609396931716171,0.5,"faces",50,"F_17_split_by_duration.1e+05",2200000
"01",3,1623,77,1,"C:\Users\ULB-CO3\Documents\Pietro\bloch_law_landscapes\final\natural_1487_077.tiff",0.4610491,1,1,76.2579244196694,0.0512401525305821,0.0477948708286647,0.5,"landscapes",50,"L_01_split_by_duration.1623",124971
"01",4,2924,58,0,"C:\Users\ULB-CO3\Documents\Pietro\bloch_law_landscapes\final\urban_3481_058.tiff",0.3420837,0,1,56.8382060149436,0.053259523211297,0.075255705324207,0.5,"landscapes",50,"L_01_split_by_duration.2924",169592
"01",5,5268,47,1,"C:\Users\ULB-CO3\Documents\Pietro\bloch_law_landscapes\final\natural_1767_047.tiff",0.4821771,1,1,46.3271267611866,0.0494786844010453,0.0678908716571364,0.5,"landscapes",50,"L_01_split_by_duration.5268",247596
"01",6,9491,26,0,"C:\Users\ULB-CO3\Documents\Pietro\bloch_law_landscapes\final\urban_3880_026.tiff",0.4370578,0,1,25.7741926604566,0.057011724984803,0.0403134128172025,0.5,"landscapes",50,"L_01_split_by_duration.9491",246766
"01",7,17100,33,0,"C:\Users\ULB-CO3\Documents\Pietro\bloch_law_landscapes\final\urban_3431_033.tiff",0.3450651,0,1,32.0871275139977,0.053920028309772,0.0446831710637673,0.5,"landscapes",50,"L_01_split_by_duration.17100",564300
"01",8,30808,23,1,"C:\Users\ULB-CO3\Documents\Pietro\bloch_law_landscapes\final\natural_1593_023.tiff",0.3250873,1,1,22.1602763140144,0.0551002971152445,0.0545092729034002,0.5,"landscapes",50,"L_01_split_by_duration.30808",708584
"01",9,55505,17,1,"C:\Users\ULB-CO3\Documents\Pietro\bloch_law_landscapes\final\natural_2567_017.tiff",0.3690369,1,1,15.9828229412384,0.0519647377515366,0.0764188534752192,0.5,"landscapes",50,"L_01_split_by_duration.55505",943585
"01",10,1e+05,13,0,"C:\Users\ULB-CO3\Documents\Pietro\bloch_law_landscapes\final\urban_3472_013.tiff",0.4570352,0,1,12.0775932511728,0.0531537915492562,0.0412675965318816,0.5,"landscapes",50,"L_01_split_by_duration.1e+05",1300000
"02",1,500,99,0,"C:\Users\ULB-CO3\Documents\Pietro\bloch_law_landscapes\final\urban_3798_099.tiff",0.5490619,0,1,98.3458253327591,0.0537104447728678,0.0515996709896395,0.5,"landscapes",50,"L_02_split_by_duration.500",49500
"02",2,901,80,1,"C:\Users\ULB-CO3\Documents\Pietro\bloch_law_landscapes\final\natural_2924_080.tiff",0.4330841,1,1,71.4308588378234,0.0532949858337268,0.0718808378489479,0.5,"landscapes",50,"L_02_split_by_duration.901",72080
"02",3,1623,46,0,"C:\Users\ULB-CO3\Documents\Pietro\bloch_law_landscapes\final\urban_3787_046.tiff",0.6770414,0,1,45.5364313657242,0.0530217577137092,0.0462183125423651,0.5,"landscapes",50,"L_02_split_by_duration.1623",74658
"02",4,2924,32,0,"C:\Users\ULB-CO3\Documents\Pietro\bloch_law_landscapes\final\urban_3605_032.tiff",0.5180761,1,0,32.0409580622551,0.0539778643524798,0.0743448212929694,0.5,"landscapes",50,"L_02_split_by_duration.2924",93568
"02",5,5268,30,0,"C:\Users\ULB-CO3\Documents\Pietro\bloch_law_landscapes\final\urban_2217_030.tiff",0.4110322,0,1,29.5825509098642,0.0510982541948166,0.0443279549685936,0.5,"landscapes",50,"L_02_split_by_duration.5268",158040
"02",6,9491,19,0,"C:\Users\ULB-CO3\Documents\Pietro\bloch_law_landscapes\final\urban_3407_019.tiff",0.4690474,1,0,19.6272486637992,0.0506695240969266,0.0623212863668421,0.5,"landscapes",50,"L_02_split_by_duration.9491",180329
"02",7,17100,19,0,"C:\Users\ULB-CO3\Documents\Pietro\bloch_law_landscapes\final\urban_3513_019.tiff",0.589105,1,0,19.9471910011111,0.0526030490899593,0.0428329093955521,0.5,"landscapes",50,"L_02_split_by_duration.17100",324900
"02",8,30808,18,0,"C:\Users\ULB-CO3\Documents\Pietro\bloch_law_landscapes\final\urban_3504_018.tiff",0.5511291,0,1,17.2983672634284,0.0552518518389099,0.0585174689459407,0.5,"landscapes",50,"L_02_split_by_duration.30808",554544
"02",9,55505,14,1,"C:\Users\ULB-CO3\Documents\Pietro\bloch_law_landscapes\final\natural_3015_014.tiff",0.4330876,1,1,13.4691436280845,0.0525137563019931,0.059218731123334,0.5,"landscapes",50,"L_02_split_by_duration.55505",777070
"02",10,1e+05,14,1,"C:\Users\ULB-CO3\Documents\Pietro\bloch_law_landscapes\final\natural_1302_014.tiff",0.3121332,1,1,13.1277243500706,0.0531009324605502,0.0427851152430517,0.5,"landscapes",50,"L_02_split_by_duration.1e+05",1400000
"03",2,901,86,0,"C:\Users\ULB-CO3\Documents\Pietro\bloch_law_landscapes\final\urban_3338_086.tiff",0.2550714,0,1,84.7554827382075,0.0522806284675284,0.0548962330835673,0.5,"landscapes",50,"L_03_split_by_duration.901",77486
"03",3,1623,84,1,"C:\Users\ULB-CO3\Documents\Pietro\bloch_law_landscapes\final\natural_2557_084.tiff",0.5290407,1,1,82.8305948516462,0.0502706443953016,0.0722972574866728,0.5,"landscapes",50,"L_03_split_by_duration.1623",136332
"03",4,2924,44,0,"C:\Users\ULB-CO3\Documents\Pietro\bloch_law_landscapes\final\urban_3745_044.tiff",0.365048,0,1,42.9318869927035,0.0513131709959253,0.065946196614602,0.5,"landscapes",50,"L_03_split_by_duration.2924",128656
"03",5,5268,35,0,"C:\Users\ULB-CO3\Documents\Pietro\bloch_law_landscapes\final\urban_3546_035.tiff",0.5070384,0,1,29.5175079112777,0.0519865185080779,0.0707547675566007,0.5,"landscapes",50,"L_03_split_by_duration.5268",184380
"03",6,9491,35,1,"C:\Users\ULB-CO3\Documents\Pietro\bloch_law_landscapes\final\natural_1524_035.tiff",0.4040792,1,1,34.5720219976093,0.0515796838936197,0.0448898940767194,0.5,"landscapes",50,"L_03_split_by_duration.9491",332185
"03",7,17100,31,1,"C:\Users\ULB-CO3\Documents\Pietro\bloch_law_landscapes\final\natural_3013_031.tiff",0.4510571,1,1,29.9864766274627,0.0529423840756501,0.0520569598875543,0.5,"landscapes",50,"L_03_split_by_duration.17100",530100
"03",8,30808,22,0,"C:\Users\ULB-CO3\Documents\Pietro\bloch_law_landscapes\final\urban_3522_022.tiff",0.4030448,0,1,20.957791847483,0.0512459271556722,0.0384207663497123,0.5,"landscapes",50,"L_03_split_by_duration.30808",677776
"03",9,55505,19,0,"C:\Users\ULB-CO3\Documents\Pietro\bloch_law_landscapes\final\urban_3524_019.tiff",0.4280331,0,1,18.1780150830206,0.0542162409683978,0.0735951913771021,0.5,"landscapes",50,"L_03_split_by_duration.55505",1054595
"03",10,1e+05,9,1,"C:\Users\ULB-CO3\Documents\Pietro\bloch_law_landscapes\final\natural_2569_009.tiff",0.3920376,0,0,8.42828500121007,0.0480110042700543,0.0446205504541991,0.5,"landscapes",50,"L_03_split_by_duration.1e+05",9e+05
"04",1,500,99,0,"C:\Users\ULB-CO3\Documents\Pietro\bloch_law_landscapes\final\urban_3623_099.tiff",0.4111086,0,1,98.5856158798097,0.0504985310156222,0.0547986413305656,0.5,"landscapes",50,"L_04_split_by_duration.500",49500
"04",2,901,57,0,"C:\Users\ULB-CO3\Documents\Pietro\bloch_law_landscapes\final\urban_3846_057.tiff",0.5050553,1,0,57.5509982387959,0.0493637124769821,0.0485341194839867,0.5,"landscapes",50,"L_04_split_by_duration.901",51357
"04",3,1623,87,0,"C:\Users\ULB-CO3\Documents\Pietro\bloch_law_landscapes\final\urban_3573_087.tiff",0.9390602,0,1,86.7597430171216,0.0531699284571017,0.0447092854131127,0.5,"landscapes",50,"L_04_split_by_duration.1623",141201
"04",4,2924,62,0,"C:\Users\ULB-CO3\Documents\Pietro\bloch_law_landscapes\final\urban_2495_062.tiff",0.4100576,1,0,63.437128063148,0.0518188762112258,0.0630611106736418,0.5,"landscapes",50,"L_04_split_by_duration.2924",181288
"04",5,5268,48,1,"C:\Users\ULB-CO3\Documents\Pietro\bloch_law_landscapes\final\natural_1323_048.tiff",0.342051,1,1,47.2259342261372,0.0484111921285139,0.0644872989493131,0.5,"landscapes",50,"L_04_split_by_duration.5268",252864
"04",6,9491,51,1,"C:\Users\ULB-CO3\Documents\Pietro\bloch_law_landscapes\final\natural_2996_051.tiff",0.3210697,1,1,51.2625763361289,0.0541843558801847,0.052594278990983,0.5,"landscapes",50,"L_04_split_by_duration.9491",484041
"04",7,17100,36,1,"C:\Users\ULB-CO3\Documents\Pietro\bloch_law_landscapes\final\natural_1777_036.tiff",0.4220411,1,1,35.5303478331215,0.0551599008984855,0.0791199034112712,0.5,"landscapes",50,"L_04_split_by_duration.17100",615600
"04",8,30808,32,1,"C:\Users\ULB-CO3\Documents\Pietro\bloch_law_landscapes\final\natural_2922_032.tiff",0.4880425,1,1,30.7107738190239,0.0544912812243013,0.0795520864486673,0.5,"landscapes",50,"L_04_split_by_duration.30808",985856
"04",9,55505,22,0,"C:\Users\ULB-CO3\Documents\Pietro\bloch_law_landscapes\final\urban_3430_022.tiff",0.4140735,0,1,19.925122488126,0.0526681963792592,0.0737851608521326,0.5,"landscapes",50,"L_04_split_by_duration.55505",1221110
"04",10,1e+05,15,0,"C:\Users\ULB-CO3\Documents\Pietro\bloch_law_landscapes\final\urban_3836_015.tiff",0.4300558,1,0,15.5997818077319,0.0497664761031775,0.0624609780715156,0.5,"landscapes",50,"L_04_split_by_duration.1e+05",1500000
"05",3,1623,92,0,"C:\Users\ULB-CO3\Documents\Pietro\bloch_law_landscapes\final\urban_3426_092.tiff",0.5538959,1,0,91.9043438386031,0.0549571688261671,0.0451863145207539,0.5,"landscapes",50,"L_05_split_by_duration.1623",149316
"05",4,2924,78,0,"C:\Users\ULB-CO3\Documents\Pietro\bloch_law_landscapes\final\urban_3428_078.tiff",0.4040397,1,0,78.7770568240405,0.0566500795792826,0.0431057099379377,0.5,"landscapes",50,"L_05_split_by_duration.2924",228072
"05",5,5268,45,0,"C:\Users\ULB-CO3\Documents\Pietro\bloch_law_landscapes\final\urban_3406_045.tiff",0.4540733,0,1,44.0598835775933,0.0535487071026153,0.0438005383934102,0.5,"landscapes",50,"L_05_split_by_duration.5268",237060
"05",6,9491,32,0,"C:\Users\ULB-CO3\Documents\Pietro\bloch_law_landscapes\final\urban_3946_032.tiff",0.3300729,0,1,30.9369642501538,0.0536486853530333,0.0759179761031182,0.5,"landscapes",50,"L_05_split_by_duration.9491",303712
"05",7,17100,13,1,"C:\Users\ULB-CO3\Documents\Pietro\bloch_law_landscapes\final\natural_2587_013.tiff",0.8010584,1,1,12.1917158011151,0.0510641557163809,0.0703322526518495,0.5,"landscapes",50,"L_05_split_by_duration.17100",222300
"05",8,30808,10,1,"C:\Users\ULB-CO3\Documents\Pietro\bloch_law_landscapes\final\natural_2622_010.tiff",0.4340313,1,1,9.36570611031293,0.0523955951181262,0.0587409392786514,0.5,"landscapes",50,"L_05_split_by_duration.30808",308080
"05",9,55505,5,1,"C:\Users\ULB-CO3\Documents\Pietro\bloch_law_landscapes\final\natural_2582_005.tiff",0.4510392,1,1,4.79473829318201,0.0526621321102962,0.0735620836309557,0.5,"landscapes",50,"L_05_split_by_duration.55505",277525
"05",10,1e+05,7,1,"C:\Users\ULB-CO3\Documents\Pietro\bloch_law_landscapes\final\natural_2594_007.tiff",0.2550731,1,1,6.97385929748625,0.0560125064666658,0.0386926371520354,0.5,"landscapes",50,"L_05_split_by_duration.1e+05",7e+05
"06",3,1623,97,1,"C:\Users\ULB-CO3\Documents\Pietro\bloch_law_landscapes\final\natural_2958_097.tiff",0.5990494,1,1,95.3319321031157,0.0550048502513788,0.0530475674962458,0.5,"landscapes",50,"L_06_split_by_duration.1623",157431
"06",4,2924,60,0,"C:\Users\ULB-CO3\Documents\Pietro\bloch_law_landscapes\final\urban_3423_060.tiff",0.4801509,0,1,59.7944697406799,0.0478398343989965,0.0462826918286264,0.5,"landscapes",50,"L_06_split_by_duration.2924",175440
"06",5,5268,36,1,"C:\Users\ULB-CO3\Documents\Pietro\bloch_law_landscapes\final\natural_1490_036.tiff",0.5150781,1,1,34.7998536958986,0.0527826934359308,0.0716861390413535,0.5,"landscapes",50,"L_06_split_by_duration.5268",189648
"06",6,9491,34,0,"C:\Users\ULB-CO3\Documents\Pietro\bloch_law_landscapes\final\urban_3515_034.tiff",0.9770532,1,0,35.224878396237,0.0495559715723156,0.045038880267143,0.5,"landscapes",50,"L_06_split_by_duration.9491",322694
"06",7,17100,13,0,"C:\Users\ULB-CO3\Documents\Pietro\bloch_law_landscapes\final\urban_3320_013.tiff",0.2501933,0,1,11.0339666110017,0.0543662996083692,0.0828530440839069,0.5,"landscapes",50,"L_06_split_by_duration.17100",222300
"06",8,30808,10,0,"C:\Users\ULB-CO3\Documents\Pietro\bloch_law_landscapes\final\urban_3476_010.tiff",0.5730421,1,0,10.1202939530784,0.0526276432879646,0.0415079596401952,0.5,"landscapes",50,"L_06_split_by_duration.30808",308080
"06",9,55505,5,0,"C:\Users\ULB-CO3\Documents\Pietro\bloch_law_landscapes\final\urban_3798_005.tiff",0.8060419,0,1,4.7161154642192,0.0529379923587914,0.0766063949143515,0.5,"landscapes",50,"L_06_split_by_duration.55505",277525
"06",10,1e+05,4,1,"C:\Users\ULB-CO3\Documents\Pietro\bloch_law_landscapes\final\natural_3011_004.tiff",0.6860376,1,1,3.7846049808429,0.0500791777315428,0.0410945721142896,0.5,"landscapes",50,"L_06_split_by_duration.1e+05",4e+05
"07",4,2924,99,1,"C:\Users\ULB-CO3\Documents\Pietro\bloch_law_landscapes\final\natural_2568_099.tiff",0.473034,1,1,97.955573976929,0.0561344592618019,0.0494155248151606,0.5,"landscapes",50,"L_07_split_by_duration.2924",289476
"07",5,5268,93,0,"C:\Users\ULB-CO3\Documents\Pietro\bloch_law_landscapes\final\urban_3758_093.tiff",0.479082,0,1,90.1108942603496,0.0547936717941696,0.0535174856888602,0.5,"landscapes",50,"L_07_split_by_duration.5268",489924
"07",6,9491,27,0,"C:\Users\ULB-CO3\Documents\Pietro\bloch_law_landscapes\final\urban_3414_027.tiff",0.3120803,1,0,27.7429598348049,0.0539628248665152,0.0432638517807383,0.5,"landscapes",50,"L_07_split_by_duration.9491",256257
"07",7,17100,20,1,"C:\Users\ULB-CO3\Documents\Pietro\bloch_law_landscapes\final\natural_1933_020.tiff",0.3511112,1,1,19.6411243382915,0.04903415170575,0.0443847324638944,0.5,"landscapes",50,"L_07_split_by_duration.17100",342000
"07",8,30808,12,1,"C:\Users\ULB-CO3\Documents\Pietro\bloch_law_landscapes\final\natural_2919_012.tiff",0.3880577,1,1,11.0873383843765,0.0523854208653851,0.0700553838392437,0.5,"landscapes",50,"L_07_split_by_duration.30808",369696
"07",9,55505,12,1,"C:\Users\ULB-CO3\Documents\Pietro\bloch_law_landscapes\final\natural_1500_012.tiff",0.3530568,1,1,9.98040037973052,0.0536132465531011,0.0758138263998036,0.5,"landscapes",50,"L_07_split_by_duration.55505",666060
"07",10,1e+05,9,1,"C:\Users\ULB-CO3\Documents\Pietro\bloch_law_landscapes\final\natural_1560_009.tiff",0.3390478,1,1,8.31772885401413,0.0496988372447706,0.0624438610760351,0.5,"landscapes",50,"L_07_split_by_duration.1e+05",9e+05
"08",6,9491,87,0,"C:\Users\ULB-CO3\Documents\Pietro\bloch_law_landscapes\final\urban_3483_087.tiff",0.4400372,0,1,86.0149971434895,0.053379506178791,0.0630768411394059,0.5,"landscapes",50,"L_08_split_by_duration.9491",825717
"08",7,17100,46,1,"C:\Users\ULB-CO3\Documents\Pietro\bloch_law_landscapes\final\natural_2532_046.tiff",0.7080642,1,1,45.5385383637163,0.0500349864288267,0.0467694748706848,0.5,"landscapes",50,"L_08_split_by_duration.17100",786600
"08",8,30808,95,1,"C:\Users\ULB-CO3\Documents\Pietro\bloch_law_landscapes\final\natural_1310_095.tiff",0.3250456,1,1,94.6478891669477,0.0474039799164489,0.0525044190555413,0.5,"landscapes",50,"L_08_split_by_duration.30808",2926760
"08",9,55505,89,0,"C:\Users\ULB-CO3\Documents\Pietro\bloch_law_landscapes\final\urban_3435_089.tiff",0.1690643,0,1,87.4643064712077,0.0549131752215607,0.0514844561380569,0.5,"landscapes",50,"L_08_split_by_duration.55505",4939945
"08",10,1e+05,56,0,"C:\Users\ULB-CO3\Documents\Pietro\bloch_law_landscapes\final\urban_3514_056.tiff",0.2730409,0,1,54.7151448806295,0.0496243338883553,0.0669302088787862,0.5,"landscapes",50,"L_08_split_by_duration.1e+05",5600000
"09",5,5268,96,1,"C:\Users\ULB-CO3\Documents\Pietro\bloch_law_landscapes\final\natural_1431_096.tiff",0.1950779,0,0,95.6823350085578,0.0549448635713493,0.0504375593347971,0.5,"landscapes",50,"L_09_split_by_duration.5268",505728
"09",6,9491,83,0,"C:\Users\ULB-CO3\Documents\Pietro\bloch_law_landscapes\final\urban_3476_083.tiff",0.0012094,0,1,82.7161298899381,0.0528246435150539,0.047774155213581,0.5,"landscapes",50,"L_09_split_by_duration.9491",787753
"09",7,17100,94,0,"C:\Users\ULB-CO3\Documents\Pietro\bloch_law_landscapes\final\urban_3634_094.tiff",0.0010771,0,1,91.8680955829718,0.0543041802988858,0.051270962425929,0.5,"landscapes",50,"L_09_split_by_duration.17100",1607400
"09",8,30808,80,1,"C:\Users\ULB-CO3\Documents\Pietro\bloch_law_landscapes\final\natural_2541_080.tiff",0.1060295,1,1,73.5191816578107,0.0553169420482015,0.0525489361630862,0.500000000000001,"landscapes",50,"L_09_split_by_duration.30808",2464640
"09",9,55505,33,0,"C:\Users\ULB-CO3\Documents\Pietro\bloch_law_landscapes\final\urban_3451_033.tiff",0.0060351,1,0,41.2014531721976,0.0548884292746056,0.0489632986757181,0.500000000000003,"landscapes",50,"L_09_split_by_duration.55505",1831665
"09",10,1e+05,27,1,"C:\Users\ULB-CO3\Documents\Pietro\bloch_law_landscapes\final\natural_2563_027.tiff",0.129166,1,1,25.6529418529021,0.0518957656371925,0.0723802676760422,0.5,"landscapes",50,"L_09_split_by_duration.1e+05",2700000
"10",4,2924,69,1,"C:\Users\ULB-CO3\Documents\Pietro\bloch_law_landscapes\final\natural_3032_069.tiff",0.3040528,1,1,68.2831766674484,0.0529112918526943,0.0507273603449832,0.5,"landscapes",50,"L_10_split_by_duration.2924",201756
"10",6,9491,34,1,"C:\Users\ULB-CO3\Documents\Pietro\bloch_law_landscapes\final\natural_2536_034.tiff",0.4771423,1,1,32.1465357812141,0.0553209817185493,0.0822375096386348,0.5,"landscapes",50,"L_10_split_by_duration.9491",322694
"10",7,17100,33,1,"C:\Users\ULB-CO3\Documents\Pietro\bloch_law_landscapes\final\natural_1826_033.tiff",0.5800408,0,0,35.770331616828,0.0550874364618397,0.0449297966025678,0.5,"landscapes",50,"L_10_split_by_duration.17100",564300
"10",8,30808,14,1,"C:\Users\ULB-CO3\Documents\Pietro\bloch_law_landscapes\final\natural_1837_014.tiff",0.3770665,1,1,13.7578987712508,0.0461772445650906,0.0523369803619256,0.5,"landscapes",50,"L_10_split_by_duration.30808",431312
"10",9,55505,12,0,"C:\Users\ULB-CO3\Documents\Pietro\bloch_law_landscapes\final\urban_3706_012.tiff",0.378056,1,0,21.9422138462222,0.0540758256947028,0.0496688300062074,0.5,"landscapes",50,"L_10_split_by_duration.55505",666060
"10",10,1e+05,16,0,"C:\Users\ULB-CO3\Documents\Pietro\bloch_law_landscapes\final\urban_3649_016.tiff",0.303061,0,1,15.3373919760347,0.0525370419986947,0.0594854183103205,0.5,"landscapes",50,"L_10_split_by_duration.1e+05",1600000
"12",1,500,99,0,"C:\Users\ULB-CO3\Documents\Pietro\bloch_law_landscapes\final\urban_3591_099.tiff",0.211046,0,1,98.0644420243715,0.0541681815700727,0.0525348801961005,0.5,"landscapes",50,"L_12_split_by_duration.500",49500
"12",4,2924,92,1,"C:\Users\ULB-CO3\Documents\Pietro\bloch_law_landscapes\final\natural_2924_092.tiff",0.3480712,1,1,89.751136303234,0.0542070887340546,0.0552443031324644,0.5,"landscapes",50,"L_12_split_by_duration.2924",269008
"12",6,9491,66,1,"C:\Users\ULB-CO3\Documents\Pietro\bloch_law_landscapes\final\natural_1434_066.tiff",0.1820364,1,1,66.2873061908812,0.052972703876293,0.0466694259019124,0.5,"landscapes",50,"L_12_split_by_duration.9491",626406
"12",7,17100,32,0,"C:\Users\ULB-CO3\Documents\Pietro\bloch_law_landscapes\final\urban_3476_032.tiff",0.381037,1,0,33.2622057985094,0.0512612441443276,0.0729419164421098,0.5,"landscapes",50,"L_12_split_by_duration.17100",547200
"12",8,30808,19,0,"C:\Users\ULB-CO3\Documents\Pietro\bloch_law_landscapes\final\urban_3725_019.tiff",0.2460962,1,0,19.7691230008813,0.0532884443300994,0.043518891490216,0.5,"landscapes",50,"L_12_split_by_duration.30808",585352
"12",9,55505,25,1,"C:\Users\ULB-CO3\Documents\Pietro\bloch_law_landscapes\final\natural_2555_025.tiff",0.2720663,1,1,24.203833375107,0.0523692608113226,0.0592997415847577,0.5,"landscapes",50,"L_12_split_by_duration.55505",1387625
"12",10,1e+05,10,1,"C:\Users\ULB-CO3\Documents\Pietro\bloch_law_landscapes\final\natural_3064_010.tiff",0.2530635,1,1,9.74653394695776,0.0506952408991184,0.0397980347232871,0.5,"landscapes",50,"L_12_split_by_duration.1e+05",1e+06
"13",4,2924,88,0,"C:\Users\ULB-CO3\Documents\Pietro\bloch_law_landscapes\final\urban_3573_088.tiff",0.2731161,1,0,88.5080445162538,0.0524852979710486,0.0497167242030733,0.5,"landscapes",50,"L_13_split_by_duration.2924",257312
"13",5,5268,66,0,"C:\Users\ULB-CO3\Documents\Pietro\bloch_law_landscapes\final\urban_3374_066.tiff",0.3070401,0,1,64.6733989635343,0.0536097748531545,0.0726642325646109,0.5,"landscapes",50,"L_13_split_by_duration.5268",347688
"13",6,9491,39,0,"C:\Users\ULB-CO3\Documents\Pietro\bloch_law_landscapes\final\urban_3921_039.tiff",0.6000434,0,1,38.4613978159233,0.0509206855325509,0.0505098850621802,0.5,"landscapes",50,"L_13_split_by_duration.9491",370149
"13",7,17100,33,0,"C:\Users\ULB-CO3\Documents\Pietro\bloch_law_landscapes\final\urban_2508_033.tiff",0.3960874,0,1,32.0023591535445,0.0644749042239443,0.0331638421834721,0.5,"landscapes",50,"L_13_split_by_duration.17100",564300
"13",8,30808,15,1,"C:\Users\ULB-CO3\Documents\Pietro\bloch_law_landscapes\final\natural_1826_015.tiff",0.4240324,1,1,14.4031317971673,0.0460067253744731,0.0464668448220267,0.5,"landscapes",50,"L_13_split_by_duration.30808",462120
"13",9,55505,14,0,"C:\Users\ULB-CO3\Documents\Pietro\bloch_law_landscapes\final\urban_3331_014.tiff",0.4621427,0,1,13.3889457862672,0.0526827517940731,0.0621316789614521,0.5,"landscapes",50,"L_13_split_by_duration.55505",777070
"13",10,1e+05,10,1,"C:\Users\ULB-CO3\Documents\Pietro\bloch_law_landscapes\final\natural_2963_010.tiff",0.5460578,1,1,9.7641855133577,0.0521309541593051,0.0552289913115478,0.5,"landscapes",50,"L_13_split_by_duration.1e+05",1e+06
"14",5,5268,55,0,"C:\Users\ULB-CO3\Documents\Pietro\bloch_law_landscapes\final\urban_3615_055.tiff",0.4720562,0,1,54.2135965620709,0.0533885749829514,0.0421101412522242,0.5,"landscapes",50,"L_14_split_by_duration.5268",289740
"14",6,9491,75,1,"C:\Users\ULB-CO3\Documents\Pietro\bloch_law_landscapes\final\natural_1435_075.tiff",0.3880382,1,1,74.5363602176726,0.0483378412090253,0.0672209122573678,0.5,"landscapes",50,"L_14_split_by_duration.9491",711825
"14",7,17100,28,0,"C:\Users\ULB-CO3\Documents\Pietro\bloch_law_landscapes\final\urban_3605_028.tiff",0.6520893,1,0,28.562177497789,0.0453780563755308,0.0526125163325631,0.5,"landscapes",50,"L_14_split_by_duration.17100",478800
"14",8,30808,26,1,"C:\Users\ULB-CO3\Documents\Pietro\bloch_law_landscapes\final\natural_2586_026.tiff",0.4040552,1,1,25.2983902166424,0.0460905645020121,0.046566081533764,0.5,"landscapes",50,"L_14_split_by_duration.30808",801008
"14",9,55505,12,1,"C:\Users\ULB-CO3\Documents\Pietro\bloch_law_landscapes\final\natural_3026_012.tiff",0.4240517,1,1,12.0454338188355,0.049826406173721,0.0560189899422944,0.5,"landscapes",50,"L_14_split_by_duration.55505",666060
"14",10,1e+05,7,1,"C:\Users\ULB-CO3\Documents\Pietro\bloch_law_landscapes\final\natural_1364_007.tiff",0.548058,1,1,6.02291175345738,0.0536838341651847,0.0775755462141051,0.5,"landscapes",50,"L_14_split_by_duration.1e+05",7e+05
"15",4,2924,67,0,"C:\Users\ULB-CO3\Documents\Pietro\bloch_law_landscapes\final\urban_3787_067.tiff",0.7200752,1,0,68.9396992183836,0.0498431309236154,0.0592474420641863,0.5,"landscapes",50,"L_15_split_by_duration.2924",195908
"15",5,5268,44,0,"C:\Users\ULB-CO3\Documents\Pietro\bloch_law_landscapes\final\urban_3500_044.tiff",0.565123,0,1,44.6356530435346,0.0520474667424557,0.0545831806536261,0.5,"landscapes",50,"L_15_split_by_duration.5268",231792
"15",6,9491,35,1,"C:\Users\ULB-CO3\Documents\Pietro\bloch_law_landscapes\final\natural_1448_035.tiff",0.8390317,1,1,33.8302137802788,0.0527189825912936,0.0555304457756647,0.5,"landscapes",50,"L_15_split_by_duration.9491",332185
"15",7,17100,17,1,"C:\Users\ULB-CO3\Documents\Pietro\bloch_law_landscapes\final\natural_2570_017.tiff",0.8300862,1,1,14.6863881204493,0.0548215869702819,0.0831566062639784,0.5,"landscapes",50,"L_15_split_by_duration.17100",290700
"15",8,30808,13,0,"C:\Users\ULB-CO3\Documents\Pietro\bloch_law_landscapes\final\urban_3331_013.tiff",0.6601085,0,1,12.9694635418692,0.0512082085286709,0.0568844970034791,0.5,"landscapes",50,"L_15_split_by_duration.30808",400504
"15",9,55505,19,0,"C:\Users\ULB-CO3\Documents\Pietro\bloch_law_landscapes\final\urban_3388_019.tiff",0.4131757,0,1,19.8755016707645,0.0535903049429377,0.0490673513462101,0.500000000000004,"landscapes",50,"L_15_split_by_duration.55505",1054595
"15",10,1e+05,6,0,"C:\Users\ULB-CO3\Documents\Pietro\bloch_law_landscapes\final\urban_3545_006.tiff",0.4990639,0,1,5.49145320308172,0.0489688870417294,0.0568086002055335,0.5,"landscapes",50,"L_15_split_by_duration.1e+05",6e+05
"16",4,2924,99,0,"C:\Users\ULB-CO3\Documents\Pietro\bloch_law_landscapes\final\urban_3710_099.tiff",0.5380623,1,0,98.7465926879406,0.0531091303908712,0.0521690693039801,0.5,"landscapes",50,"L_16_split_by_duration.2924",289476
"16",5,5268,66,0,"C:\Users\ULB-CO3\Documents\Pietro\bloch_law_landscapes\final\urban_3380_066.tiff",0.3180637,1,0,66.4773810642896,0.0520002270312014,0.0804065304643228,0.5,"landscapes",50,"L_16_split_by_duration.5268",347688
"16",6,9491,36,0,"C:\Users\ULB-CO3\Documents\Pietro\bloch_law_landscapes\final\urban_1969_036.tiff",0.3840665,1,0,36.7108097777245,0.051819716096438,0.0695138647349405,0.5,"landscapes",50,"L_16_split_by_duration.9491",341676
"16",7,17100,20,1,"C:\Users\ULB-CO3\Documents\Pietro\bloch_law_landscapes\final\natural_2545_020.tiff",0.3110761,1,1,19.9185878807816,0.0459746917493585,0.0465694095493956,0.5,"landscapes",50,"L_16_split_by_duration.17100",342000
"16",8,30808,26,0,"C:\Users\ULB-CO3\Documents\Pietro\bloch_law_landscapes\final\urban_3414_026.tiff",0.1930656,1,0,27.63941921922,0.0478041127093252,0.0520700669254811,0.5,"landscapes",50,"L_16_split_by_duration.30808",801008
"16",9,55505,15,1,"C:\Users\ULB-CO3\Documents\Pietro\bloch_law_landscapes\final\natural_1491_015.tiff",0.1610815,1,1,14.6578267222306,0.0464136248898374,0.0447588750965379,0.5,"landscapes",50,"L_16_split_by_duration.55505",832575
"16",10,1e+05,10,1,"C:\Users\ULB-CO3\Documents\Pietro\bloch_law_landscapes\final\natural_2570_010.tiff",0.302028,1,1,9.52640527929656,0.0468836144108631,0.0461292670832988,0.5,"landscapes",50,"L_16_split_by_duration.1e+05",1e+06
"17",5,5268,67,0,"C:\Users\ULB-CO3\Documents\Pietro\bloch_law_landscapes\final\urban_2290_067.tiff",0.4940441,1,0,67.4711510344819,0.0557970012542011,0.0442458989365242,0.5,"landscapes",50,"L_17_split_by_duration.5268",352956
"17",6,9491,47,1,"C:\Users\ULB-CO3\Documents\Pietro\bloch_law_landscapes\final\natural_2536_047.tiff",0.4790614,0,0,46.7663068527938,0.0535779802532819,0.0412055850445376,0.5,"landscapes",50,"L_17_split_by_duration.9491",446077
"17",8,30808,30,0,"C:\Users\ULB-CO3\Documents\Pietro\bloch_law_landscapes\final\urban_3781_030.tiff",0.4240352,0,1,28.1702717417976,0.0556251147709411,0.0668778074228328,0.5,"landscapes",50,"L_17_split_by_duration.30808",924240
"17",9,55505,13,1,"C:\Users\ULB-CO3\Documents\Pietro\bloch_law_landscapes\final\natural_1835_013.tiff",0.4750304,1,1,12.6308945975236,0.0513635792190218,0.0420609096002996,0.5,"landscapes",50,"L_17_split_by_duration.55505",721565
"17",10,1e+05,12,0,"C:\Users\ULB-CO3\Documents\Pietro\bloch_law_landscapes\final\urban_3367_012.tiff",0.7420318,1,0,12.4162568091536,0.0449403472952809,0.0462157482842619,0.5,"landscapes",50,"L_17_split_by_duration.1e+05",1200000
"01",2,901,98,1,"C:\Users\ULB-CO3\Documents\Pietro\bloch_law_objects\final\animate_reindeer_17s_098.tiff",0.2630458,1,1,97.8871070278497,0.053369389037824,0.048188238580267,0.5,"objects",50,"O_01_split_by_duration.901",88298
"01",3,1623,71,1,"C:\Users\ULB-CO3\Documents\Pietro\bloch_law_objects\final\animate_turtle_10n_071.tiff",0.3220479,1,1,70.9643422504882,0.0545657050802134,0.0438175349857696,0.5,"objects",50,"O_01_split_by_duration.1623",115233
"01",4,2924,61,0,"C:\Users\ULB-CO3\Documents\Pietro\bloch_law_objects\final\inanimate_rug_09s_061.tiff",0.2980638,0,1,60.6807979674917,0.0484878617979914,0.0470868132258332,0.5,"objects",50,"O_01_split_by_duration.2924",178364
"01",5,5268,60,0,"C:\Users\ULB-CO3\Documents\Pietro\bloch_law_objects\final\inanimate_recliner_08s_060.tiff",0.3440693,0,1,57.8799670486901,0.0536925665268578,0.0714270316797926,0.5,"objects",50,"O_01_split_by_duration.5268",316080
"01",6,9491,32,0,"C:\Users\ULB-CO3\Documents\Pietro\bloch_law_objects\final\inanimate_toaster_13n_032.tiff",0.3311154,0,1,31.0561828240119,0.0546927380843692,0.0381085542124627,0.5,"objects",50,"O_01_split_by_duration.9491",303712
"01",7,17100,37,1,"C:\Users\ULB-CO3\Documents\Pietro\bloch_law_objects\final\animate_horse_03s_037.tiff",0.4150749,1,1,36.0226707001786,0.0601635866520351,0.03655707488118,0.5,"objects",50,"O_01_split_by_duration.17100",632700
"01",8,30808,35,1,"C:\Users\ULB-CO3\Documents\Pietro\bloch_law_objects\final\animate_mouse1_16s_035.tiff",0.3000375,1,1,34.1360009140204,0.0538941483216271,0.0724133116081562,0.5,"objects",50,"O_01_split_by_duration.30808",1078280
"01",9,55505,19,1,"C:\Users\ULB-CO3\Documents\Pietro\bloch_law_objects\final\animate_llama_10s_019.tiff",0.6220906,1,1,18.2371007446268,0.0523950346315905,0.0753321479032141,0.5,"objects",50,"O_01_split_by_duration.55505",1054595
"01",10,1e+05,18,0,"C:\Users\ULB-CO3\Documents\Pietro\bloch_law_objects\final\inanimate_aircraft_carrier_05s_018.tiff",0.7720952,0,1,18.068658734526,0.0530346930021421,0.0605124230824891,0.5,"objects",50,"O_01_split_by_duration.1e+05",1800000
"02",2,901,89,0,"C:\Users\ULB-CO3\Documents\Pietro\bloch_law_objects\final\inanimate_sunglasses_11s_089.tiff",0.9230722,0,1,88.1877628391576,0.0500768723373251,0.0687386060262968,0.5,"objects",50,"O_02_split_by_duration.901",80189
"02",3,1623,78,1,"C:\Users\ULB-CO3\Documents\Pietro\bloch_law_objects\final\animate_rabbit_06s_078.tiff",0.2670537,1,1,77.7387031512027,0.0466152082594523,0.0541969748162985,0.5,"objects",50,"O_02_split_by_duration.1623",126594
"02",4,2924,73,0,"C:\Users\ULB-CO3\Documents\Pietro\bloch_law_objects\final\inanimate_cart_05s_073.tiff",0.4820549,0,1,67.9603999110599,0.0547092499254928,0.0831564849679789,0.5,"objects",50,"O_02_split_by_duration.2924",213452
"02",5,5268,32,0,"C:\Users\ULB-CO3\Documents\Pietro\bloch_law_objects\final\inanimate_crane_13s_032.tiff",1.4230372,1,0,31.8963841563399,0.0485057545807909,0.0450948226734947,0.5,"objects",50,"O_02_split_by_duration.5268",168576
"02",6,9491,19,1,"C:\Users\ULB-CO3\Documents\Pietro\bloch_law_objects\final\animate_hawk_08s_019.tiff",0.3560547,1,1,16.0563442287157,0.054964966490302,0.0844898680554958,0.5,"objects",50,"O_02_split_by_duration.9491",180329
"02",7,17100,27,0,"C:\Users\ULB-CO3\Documents\Pietro\bloch_law_objects\final\inanimate_saltshaker_12s_027.tiff",0.6360432,0,1,25.6348536265197,0.0528993137921011,0.0643503488059127,0.5,"objects",50,"O_02_split_by_duration.17100",461700
"02",8,30808,19,1,"C:\Users\ULB-CO3\Documents\Pietro\bloch_law_objects\final\animate_llama_10s_019.tiff",0.4070381,0,0,19.0263542507417,0.0545942706070238,0.0404143230125789,0.5,"objects",50,"O_02_split_by_duration.30808",585352
"02",9,55505,23,0,"C:\Users\ULB-CO3\Documents\Pietro\bloch_law_objects\final\inanimate_printer_09s_023.tiff",0.3630973,0,1,23.701535217605,0.0494236968597958,0.0655268247979853,0.5,"objects",50,"O_02_split_by_duration.55505",1276615
"02",10,1e+05,23,1,"C:\Users\ULB-CO3\Documents\Pietro\bloch_law_objects\final\animate_gorilla_06s_023.tiff",0.2790621,1,1,23.0384264216522,0.0500281898250119,0.0659618370677507,0.5,"objects",50,"O_02_split_by_duration.1e+05",2300000
"03",1,500,99,1,"C:\Users\ULB-CO3\Documents\Pietro\bloch_law_objects\final\animate_gorilla_06s_099.tiff",0.3550611,1,1,98.6731764687367,0.0471329458932336,0.0553233485597147,0.5,"objects",50,"O_03_split_by_duration.500",49500
"03",2,901,91,0,"C:\Users\ULB-CO3\Documents\Pietro\bloch_law_objects\final\inanimate_road_sign_10s_091.tiff",0.3910563,0,1,90.4701350159678,0.0509087629364828,0.0638900437174561,0.5,"objects",50,"O_03_split_by_duration.901",81991
"03",3,1623,57,0,"C:\Users\ULB-CO3\Documents\Pietro\bloch_law_objects\final\inanimate_hairdryer_09s_057.tiff",0.438055,0,1,55.0142774628911,0.0544126287740412,0.0609178496722632,0.5,"objects",50,"O_03_split_by_duration.1623",92511
"03",4,2924,44,1,"C:\Users\ULB-CO3\Documents\Pietro\bloch_law_objects\final\animate_goose_02s_044.tiff",0.3890419,1,1,43.2612176973136,0.0523477907477199,0.0561443860442315,0.5,"objects",50,"O_03_split_by_duration.2924",128656
"03",5,5268,45,0,"C:\Users\ULB-CO3\Documents\Pietro\bloch_law_objects\final\inanimate_basket_12s_045.tiff",0.284094,0,1,44.0257181187522,0.0498019634926352,0.045021384103734,0.5,"objects",50,"O_03_split_by_duration.5268",237060
"03",6,9491,30,0,"C:\Users\ULB-CO3\Documents\Pietro\bloch_law_objects\final\inanimate_coffee_pot_04s_030.tiff",0.3470461,0,1,30.0324417976588,0.0478943862373416,0.0498280846636663,0.5,"objects",50,"O_03_split_by_duration.9491",284730
"03",7,17100,38,0,"C:\Users\ULB-CO3\Documents\Pietro\bloch_law_objects\final\inanimate_rocket_06s_038.tiff",0.3840557,0,1,34.1404450702338,0.0547795459795587,0.0822257587846557,0.5,"objects",50,"O_03_split_by_duration.17100",649800
"03",8,30808,23,0,"C:\Users\ULB-CO3\Documents\Pietro\bloch_law_objects\final\inanimate_globe_12s_023.tiff",0.2940681,0,1,22.7436100413864,0.0518572474480854,0.0415109649328491,0.5,"objects",50,"O_03_split_by_duration.30808",708584
"03",9,55505,27,1,"C:\Users\ULB-CO3\Documents\Pietro\bloch_law_objects\final\animate_crow_06s_027.tiff",0.3230383,1,1,24.4172512902757,0.0550548502190305,0.0784883805574343,0.5,"objects",50,"O_03_split_by_duration.55505",1498635
"03",10,1e+05,14,1,"C:\Users\ULB-CO3\Documents\Pietro\bloch_law_objects\final\animate_llama_04n_014.tiff",0.3250446,1,1,13.6794617303989,0.0524964100661417,0.0599857914515971,0.5,"objects",50,"O_03_split_by_duration.1e+05",1400000
"04",2,901,96,1,"C:\Users\ULB-CO3\Documents\Pietro\bloch_law_objects\final\animate_rhinoceros_01b_096.tiff",0.3230432,1,1,95.133612421952,0.0537439181120974,0.0509814412562268,0.5,"objects",50,"O_04_split_by_duration.901",86496
"04",3,1623,70,1,"C:\Users\ULB-CO3\Documents\Pietro\bloch_law_objects\final\animate_duckling_08s_070.tiff",0.3020413,1,1,69.0716505101307,0.0496329143852272,0.0515838074521993,0.5,"objects",50,"O_04_split_by_duration.1623",113610
"04",4,2924,91,0,"C:\Users\ULB-CO3\Documents\Pietro\bloch_law_objects\final\inanimate_compass_06n_091.tiff",0.2620868,1,0,92.8003714306635,0.0551613859752881,0.0525916625778001,0.5,"objects",50,"O_04_split_by_duration.2924",266084
"04",5,5268,51,0,"C:\Users\ULB-CO3\Documents\Pietro\bloch_law_objects\final\inanimate_extinguisher_07s_051.tiff",0.3310612,1,0,52.5266500411643,0.0519254485268152,0.0499047036061447,0.5,"objects",50,"O_04_split_by_duration.5268",268668
"04",6,9491,31,0,"C:\Users\ULB-CO3\Documents\Pietro\bloch_law_objects\final\inanimate_burner_07n_031.tiff",0.2920732,0,1,30.8383297103168,0.0579335025981194,0.039522314801361,0.5,"objects",50,"O_04_split_by_duration.9491",294221
"04",7,17100,24,0,"C:\Users\ULB-CO3\Documents\Pietro\bloch_law_objects\final\inanimate_lantern_11s_024.tiff",0.7450928,1,0,24.1157551661391,0.0501562660906941,0.0701384383041025,0.5,"objects",50,"O_04_split_by_duration.17100",410400
"04",8,30808,40,0,"C:\Users\ULB-CO3\Documents\Pietro\bloch_law_objects\final\inanimate_shopping_cart_16s_040.tiff",0.6561373,1,0,40.1274344158963,0.0553355943952076,0.041757919608894,0.5,"objects",50,"O_04_split_by_duration.30808",1232320
"04",9,55505,21,0,"C:\Users\ULB-CO3\Documents\Pietro\bloch_law_objects\final\inanimate_cd_player_04s_021.tiff",0.4330411,0,1,20.6019721839471,0.0493223424137124,0.0453295788395412,0.5,"objects",50,"O_04_split_by_duration.55505",1165605
"04",10,1e+05,31,1,"C:\Users\ULB-CO3\Documents\Pietro\bloch_law_objects\final\animate_warthog_05s_031.tiff",0.3830415,1,1,30.4197113063435,0.0495509407682454,0.0473430785567759,0.5,"objects",50,"O_04_split_by_duration.1e+05",3100000
"05",4,2924,76,1,"C:\Users\ULB-CO3\Documents\Pietro\bloch_law_objects\final\animate_antelope_11s_076.tiff",0.2920779,1,1,75.0767027732421,0.0506985153107101,0.0483161526489059,0.5,"objects",50,"O_05_split_by_duration.2924",222224
"05",5,5268,48,0,"C:\Users\ULB-CO3\Documents\Pietro\bloch_law_objects\final\inanimate_lantern_11s_048.tiff",0.4370664,0,1,47.8270210603137,0.0466605314657058,0.0591803238205393,0.5,"objects",50,"O_05_split_by_duration.5268",252864
"05",6,9491,27,1,"C:\Users\ULB-CO3\Documents\Pietro\bloch_law_objects\final\animate_tiger_04s_027.tiff",0.4640861,1,1,26.0377270537354,0.067000828738467,0.0329319766604204,0.5,"objects",50,"O_05_split_by_duration.9491",256257
"05",7,17100,11,1,"C:\Users\ULB-CO3\Documents\Pietro\bloch_law_objects\final\animate_bison_05s_011.tiff",0.9460615,1,1,10.0722694736981,0.0564915092915076,0.0802993421186276,0.5,"objects",50,"O_05_split_by_duration.17100",188100
"05",8,30808,8,0,"C:\Users\ULB-CO3\Documents\Pietro\bloch_law_objects\final\inanimate_sailboat_11s_008.tiff",0.804206,0,1,7.84053043006147,0.0540279012635606,0.0587058023024569,0.5,"objects",50,"O_05_split_by_duration.30808",246464
"05",9,55505,7,0,"C:\Users\ULB-CO3\Documents\Pietro\bloch_law_objects\final\inanimate_satellite_12s_007.tiff",0.9981089,0,1,5.75192044385348,0.0527833469308918,0.0764355561242311,0.5,"objects",50,"O_05_split_by_duration.55505",388535
"05",10,1e+05,7,0,"C:\Users\ULB-CO3\Documents\Pietro\bloch_law_objects\final\inanimate_sunglasses_11s_007.tiff",1.0990323,1,0,6.88986652828175,0.053527623070052,0.064421996912595,0.5,"objects",50,"O_05_split_by_duration.1e+05",7e+05
"06",3,1623,99,1,"C:\Users\ULB-CO3\Documents\Pietro\bloch_law_objects\final\animate_porcupine_01b_099.tiff",0.6270517,0,0,98.985390980179,0.0459885891934098,0.0539954600341701,0.5,"objects",50,"O_06_split_by_duration.1623",160677
"06",4,2924,74,1,"C:\Users\ULB-CO3\Documents\Pietro\bloch_law_objects\final\animate_hyena_03s_074.tiff",0.5850694,1,1,73.6866890977101,0.0575781834670284,0.0417220832751491,0.5,"objects",50,"O_06_split_by_duration.2924",216376
"06",5,5268,54,0,"C:\Users\ULB-CO3\Documents\Pietro\bloch_law_objects\final\inanimate_cup_12s_054.tiff",0.9500615,1,0,54.6368319823145,0.0503930825163787,0.0677263006336816,0.5,"objects",50,"O_06_split_by_duration.5268",284472
"06",6,9491,31,1,"C:\Users\ULB-CO3\Documents\Pietro\bloch_law_objects\final\animate_orangutan_15s_031.tiff",0.5440398,0,0,31.7539350110127,0.0514595880009018,0.0771147336645869,0.5,"objects",50,"O_06_split_by_duration.9491",294221
"06",7,17100,21,1,"C:\Users\ULB-CO3\Documents\Pietro\bloch_law_objects\final\animate_blowfish_03s_021.tiff",0.6010654,0,0,21.8397736061873,0.0535232601219928,0.0733764128292817,0.5,"objects",50,"O_06_split_by_duration.17100",359100
"06",8,30808,14,1,"C:\Users\ULB-CO3\Documents\Pietro\bloch_law_objects\final\animate_lamb_04s_014.tiff",0.2700441,1,1,13.1711245755386,0.0564628876074663,0.0410339983006943,0.5,"objects",50,"O_06_split_by_duration.30808",431312
"06",9,55505,10,1,"C:\Users\ULB-CO3\Documents\Pietro\bloch_law_objects\final\animate_zebra_03s_010.tiff",0.4780942,1,1,10.0569700453268,0.0518872458516921,0.061410381872165,0.5,"objects",50,"O_06_split_by_duration.55505",555050
"06",10,1e+05,10,1,"C:\Users\ULB-CO3\Documents\Pietro\bloch_law_objects\final\animate_koala_12s_010.tiff",0.5750657,1,1,9.79783949989907,0.0593433273849984,0.0693392165363721,0.5,"objects",50,"O_06_split_by_duration.1e+05",1e+06
"07",4,2924,94,0,"C:\Users\ULB-CO3\Documents\Pietro\bloch_law_objects\final\inanimate_bed_17s_094.tiff",0.5290663,0,1,92.0765795000847,0.0511993140115529,0.0534193628614133,0.5,"objects",50,"O_07_split_by_duration.2924",274856
"07",5,5268,64,0,"C:\Users\ULB-CO3\Documents\Pietro\bloch_law_objects\final\inanimate_light_switch_03s_064.tiff",0.2620736,0,1,62.7483929537836,0.0537841490661495,0.076254162550167,0.5,"objects",50,"O_07_split_by_duration.5268",337152
"07",6,9491,36,1,"C:\Users\ULB-CO3\Documents\Pietro\bloch_law_objects\final\animate_squirrel_10s_036.tiff",0.4450772,1,1,34.8602394656135,0.0540112018871605,0.0608385562570409,0.5,"objects",50,"O_07_split_by_duration.9491",341676
"07",7,17100,16,1,"C:\Users\ULB-CO3\Documents\Pietro\bloch_law_objects\final\animate_porcupine_08s_016.tiff",0.3190568,1,1,15.0739955851184,0.0488863607909982,0.0436218246385649,0.5,"objects",50,"O_07_split_by_duration.17100",273600
"07",8,30808,17,1,"C:\Users\ULB-CO3\Documents\Pietro\bloch_law_objects\final\animate_ladybug_10s_017.tiff",0.3840574,0,0,18.5073461609301,0.0481859484570429,0.0485883977443884,0.5,"objects",50,"O_07_split_by_duration.30808",523736
"07",9,55505,9,0,"C:\Users\ULB-CO3\Documents\Pietro\bloch_law_objects\final\inanimate_cash_register_10s_009.tiff",0.7341518,0,1,8.94749406391474,0.0466127191669053,0.0591341679970617,0.5,"objects",50,"O_07_split_by_duration.55505",499545
"07",10,1e+05,15,0,"C:\Users\ULB-CO3\Documents\Pietro\bloch_law_objects\final\inanimate_boat_05s_015.tiff",0.240058,0,1,14.8385899905472,0.0531099395537222,0.0479206622112527,0.5,"objects",50,"O_07_split_by_duration.1e+05",1500000
"08",5,5268,96,1,"C:\Users\ULB-CO3\Documents\Pietro\bloch_law_objects\final\animate_butterfly_01b_096.tiff",0.1360878,1,1,95.568484768056,0.0501458404153379,0.0504308435887258,0.5,"objects",50,"O_08_split_by_duration.5268",505728
"08",6,9491,31,1,"C:\Users\ULB-CO3\Documents\Pietro\bloch_law_objects\final\animate_bull_04s_031.tiff",0.2560307,1,1,30.5219028407856,0.0512103066710441,0.051132172700311,0.5,"objects",50,"O_08_split_by_duration.9491",294221
"08",7,17100,69,1,"C:\Users\ULB-CO3\Documents\Pietro\bloch_law_objects\final\animate_dalmatian_12s_069.tiff",0.1520858,1,1,67.6766489264868,0.0547930339039592,0.0478831044504489,0.5,"objects",50,"O_08_split_by_duration.17100",1179900
"08",8,30808,49,0,"C:\Users\ULB-CO3\Documents\Pietro\bloch_law_objects\final\inanimate_matchbox_03s_049.tiff",0.1200363,1,0,50.8578040454744,0.0454504507302563,0.0556542815972892,0.5,"objects",50,"O_08_split_by_duration.30808",1509592
"08",9,55505,27,1,"C:\Users\ULB-CO3\Documents\Pietro\bloch_law_objects\final\animate_antelope_01b_027.tiff",0.3951272,1,1,26.2061746379415,0.0591929784573516,0.0396165925672314,0.5,"objects",50,"O_08_split_by_duration.55505",1498635
"08",10,1e+05,10,1,"C:\Users\ULB-CO3\Documents\Pietro\bloch_law_objects\final\animate_zebra_03s_010.tiff",0.2031627,1,1,8.98549269595788,0.066165321440714,0.0324910224578996,0.5,"objects",50,"O_08_split_by_duration.1e+05",1e+06
"09",5,5268,83,1,"C:\Users\ULB-CO3\Documents\Pietro\bloch_law_objects\final\animate_anteater_03s_083.tiff",0.2560405,0,0,88.1964479158091,0.0552911205120338,0.0530081328814939,0.5,"objects",50,"O_09_split_by_duration.5268",437244
"09",6,9491,26,1,"C:\Users\ULB-CO3\Documents\Pietro\bloch_law_objects\final\animate_yak_14s_026.tiff",0.0010959,1,1,25.9329238310664,0.0547782858327143,0.0766055571887437,0.5,"objects",50,"O_09_split_by_duration.9491",246766
"09",7,17100,92,1,"C:\Users\ULB-CO3\Documents\Pietro\bloch_law_objects\final\animate_grasshopper_18n_092.tiff",0.5791281,1,1,88.0999458083244,0.0555443765782024,0.0526431288242492,0.5,"objects",50,"O_09_split_by_duration.17100",1573200
"09",8,30808,18,1,"C:\Users\ULB-CO3\Documents\Pietro\bloch_law_objects\final\animate_wolf_05n_018.tiff",0.1080592,0,0,17.9071429361379,0.0526082201557804,0.0403768184738149,0.5,"objects",50,"O_09_split_by_duration.30808",554544
"09",9,55505,13,1,"C:\Users\ULB-CO3\Documents\Pietro\bloch_law_objects\final\animate_elephant_11n_013.tiff",0.1590435,0,0,13.9541543692194,0.0500862221861017,0.0706982355499013,0.5,"objects",50,"O_09_split_by_duration.55505",721565
"09",10,1e+05,13,0,"C:\Users\ULB-CO3\Documents\Pietro\bloch_law_objects\final\inanimate_calculator_12s_013.tiff",0.3262199,0,1,12.5109359516337,0.0568284850305826,0.0656585879947845,0.5,"objects",50,"O_09_split_by_duration.1e+05",1300000
"10",7,17100,99,0,"C:\Users\ULB-CO3\Documents\Pietro\bloch_law_objects\final\inanimate_brush_12s_099.tiff",0.3881323,0,1,98.1917457062466,0.049499153422334,0.0570100854745679,0.5,"objects",50,"O_10_split_by_duration.17100",1692900
"10",9,55505,80,1,"C:\Users\ULB-CO3\Documents\Pietro\bloch_law_objects\final\animate_squirrel_04s_080.tiff",0.238105,1,1,76.7841585558044,0.0546405781968694,0.0762602684260627,0.5,"objects",50,"O_10_split_by_duration.55505",4440400
"10",10,1e+05,95,0,"C:\Users\ULB-CO3\Documents\Pietro\bloch_law_objects\final\inanimate_briefcase_01b_095.tiff",0.4550514,0,1,94.4118415142685,0.0486957183616596,0.0588780085426409,0.5,"objects",50,"O_10_split_by_duration.1e+05",9500000
"12",4,2924,91,0,"C:\Users\ULB-CO3\Documents\Pietro\bloch_law_objects\final\inanimate_extinguisher_14s_091.tiff",0.4382231,1,0,91.1760066360524,0.0612005129717409,0.0443461179670743,0.5,"objects",50,"O_12_split_by_duration.2924",266084
"12",5,5268,78,1,"C:\Users\ULB-CO3\Documents\Pietro\bloch_law_objects\final\animate_flamingo_10s_078.tiff",0.284035,1,1,76.3179873822187,0.0500091334859841,0.052123306660374,0.5,"objects",50,"O_12_split_by_duration.5268",410904
"12",6,9491,47,0,"C:\Users\ULB-CO3\Documents\Pietro\bloch_law_objects\final\inanimate_flip_flop_11s_047.tiff",0.5060641,1,0,47.2688240670295,0.0484894627578027,0.066377275045391,0.5,"objects",50,"O_12_split_by_duration.9491",446077
"12",7,17100,24,0,"C:\Users\ULB-CO3\Documents\Pietro\bloch_law_objects\final\inanimate_dollhouse_11s_024.tiff",0.4790947,0,1,23.4820011511959,0.0486716475856824,0.0667704738985503,0.5,"objects",50,"O_12_split_by_duration.17100",410400
"12",8,30808,69,0,"C:\Users\ULB-CO3\Documents\Pietro\bloch_law_objects\final\inanimate_pocket_watch_15s_069.tiff",0.4930621,0,1,68.3419697408694,0.0504311073610818,0.0723129717727311,0.5,"objects",50,"O_12_split_by_duration.30808",2125752
"12",9,55505,9,0,"C:\Users\ULB-CO3\Documents\Pietro\bloch_law_objects\final\inanimate_brush_12s_009.tiff",0.7440593,1,0,9.58634902796722,0.0490589605378191,0.0425057233920953,0.5,"objects",50,"O_12_split_by_duration.55505",499545
"12",10,1e+05,19,1,"C:\Users\ULB-CO3\Documents\Pietro\bloch_law_objects\final\animate_tiger_13n_019.tiff",0.3000853,0,0,22.2433884041909,0.0541564112649549,0.0698201615777825,0.5,"objects",50,"O_12_split_by_duration.1e+05",1900000
"13",4,2924,80,1,"C:\Users\ULB-CO3\Documents\Pietro\bloch_law_objects\final\animate_mosquito_02s_080.tiff",0.6320691,1,1,79.0175181335835,0.0482130509009611,0.0497346714545166,0.5,"objects",50,"O_13_split_by_duration.2924",233920
"13",5,5268,64,0,"C:\Users\ULB-CO3\Documents\Pietro\bloch_law_objects\final\inanimate_cash_register_06s_064.tiff",0.353045,0,1,63.3706760957298,0.0580626425451221,0.0610826458253879,0.5,"objects",50,"O_13_split_by_duration.5268",337152
"13",6,9491,34,1,"C:\Users\ULB-CO3\Documents\Pietro\bloch_law_objects\final\animate_mosquito_04s_034.tiff",0.5920365,1,1,31.8427721913264,0.0547803069068537,0.0822551622278036,0.5,"objects",50,"O_13_split_by_duration.9491",322694
"13",7,17100,11,0,"C:\Users\ULB-CO3\Documents\Pietro\bloch_law_objects\final\inanimate_dartboard_06s_011.tiff",0.2532104,0,1,10.1203458627374,0.0539150646407438,0.0789161213493371,0.5,"objects",50,"O_13_split_by_duration.17100",188100
"13",8,30808,18,1,"C:\Users\ULB-CO3\Documents\Pietro\bloch_law_objects\final\animate_owl_03s_018.tiff",0.3570863,1,1,17.4414770578951,0.0480513085350895,0.0572982291633932,0.5,"objects",50,"O_13_split_by_duration.30808",554544
"13",9,55505,11,0,"C:\Users\ULB-CO3\Documents\Pietro\bloch_law_objects\final\inanimate_horseshoe_03s_011.tiff",0.3190639,0,1,10.6631163026313,0.0499335799191505,0.0594843716851645,0.5,"objects",50,"O_13_split_by_duration.55505",610555
"13",10,1e+05,6,0,"C:\Users\ULB-CO3\Documents\Pietro\bloch_law_objects\final\inanimate_briefcase_03s_006.tiff",0.3292216,0,1,5.09789582180588,0.0532293681015422,0.0562984831529867,0.5,"objects",50,"O_13_split_by_duration.1e+05",6e+05
"14",5,5268,69,1,"C:\Users\ULB-CO3\Documents\Pietro\bloch_law_objects\final\animate_fish_05s_069.tiff",0.5670468,1,1,67.6988801334551,0.0544893682187223,0.0486527311991672,0.5,"objects",50,"O_14_split_by_duration.5268",363492
"14",6,9491,48,0,"C:\Users\ULB-CO3\Documents\Pietro\bloch_law_objects\final\inanimate_calculator_12s_048.tiff",0.1551333,0,1,44.2276657577813,0.0544437089695456,0.083908659314369,0.5,"objects",50,"O_14_split_by_duration.9491",455568
"14",7,17100,35,1,"C:\Users\ULB-CO3\Documents\Pietro\bloch_law_objects\final\animate_guinea_pig_06s_035.tiff",0.2940537,1,1,34.4796705856537,0.0575642430239766,0.0666819179008375,0.5,"objects",50,"O_14_split_by_duration.17100",598500
"14",8,30808,13,0,"C:\Users\ULB-CO3\Documents\Pietro\bloch_law_objects\final\inanimate_boat_05s_013.tiff",0.1940723,0,1,11.9171894530551,0.0554506337884605,0.071183726639508,0.5,"objects",50,"O_14_split_by_duration.30808",400504
"14",9,55505,21,1,"C:\Users\ULB-CO3\Documents\Pietro\bloch_law_objects\final\animate_panther_01b_021.tiff",0.3170422,0,0,21.0235522924644,0.0531434735582506,0.0382603198068634,0.5,"objects",50,"O_14_split_by_duration.55505",1165605
"14",10,1e+05,19,0,"C:\Users\ULB-CO3\Documents\Pietro\bloch_law_objects\final\inanimate_cash_register_06s_019.tiff",0.2570361,0,1,18.3528081818813,0.0519838760198257,0.0409813421082363,0.5,"objects",50,"O_14_split_by_duration.1e+05",1900000
"15",4,2924,93,1,"C:\Users\ULB-CO3\Documents\Pietro\bloch_law_objects\final\animate_mosquito_02s_093.tiff",0.7360703,0,0,92.6634535119877,0.0496459280476734,0.0508544210966671,0.5,"objects",50,"O_15_split_by_duration.2924",271932
"15",5,5268,56,0,"C:\Users\ULB-CO3\Documents\Pietro\bloch_law_objects\final\inanimate_recliner_02s_056.tiff",0.8860741,1,0,56.3775467450227,0.0554340513718086,0.0438740888849163,0.5,"objects",50,"O_15_split_by_duration.5268",295008
"15",6,9491,46,1,"C:\Users\ULB-CO3\Documents\Pietro\bloch_law_objects\final\animate_tiger_13n_046.tiff",0.6250554,0,0,47.8029830045389,0.0543775182054944,0.0790710661034365,0.5,"objects",50,"O_15_split_by_duration.9491",436586
"15",7,17100,16,0,"C:\Users\ULB-CO3\Documents\Pietro\bloch_law_objects\final\inanimate_bunkbed_12s_016.tiff",0.3570266,0,1,15.1909875386705,0.0499829878287435,0.0426315104992596,0.5,"objects",50,"O_15_split_by_duration.17100",273600
"15",8,30808,12,1,"C:\Users\ULB-CO3\Documents\Pietro\bloch_law_objects\final\animate_pigeon_02s_012.tiff",0.3800874,0,0,12.0119125177398,0.0532547182284833,0.0529801355966353,0.5,"objects",50,"O_15_split_by_duration.30808",369696
"15",9,55505,13,1,"C:\Users\ULB-CO3\Documents\Pietro\bloch_law_objects\final\animate_warthog_05s_013.tiff",0.329104,1,1,11.9881145960085,0.0610876604052645,0.0357133657497227,0.5,"objects",50,"O_15_split_by_duration.55505",721565
"15",10,1e+05,10,0,"C:\Users\ULB-CO3\Documents\Pietro\bloch_law_objects\final\inanimate_cymbal_08s_010.tiff",0.5010817,0,1,9.12584897153772,0.0542820185363178,0.0765839221580271,0.5,"objects",50,"O_15_split_by_duration.1e+05",1e+06
"16",3,1623,99,0,"C:\Users\ULB-CO3\Documents\Pietro\bloch_law_objects\final\inanimate_nail_clippers_09s_099.tiff",0.3581058,1,0,98.7559528339948,0.0515198943754262,0.0517043792041651,0.5,"objects",50,"O_16_split_by_duration.1623",160677
"16",4,2924,83,0,"C:\Users\ULB-CO3\Documents\Pietro\bloch_law_objects\final\inanimate_canoe_01b_083.tiff",0.3462104,0,1,82.267475127376,0.0560977358101047,0.0444697232570488,0.5,"objects",50,"O_16_split_by_duration.2924",242692
"16",5,5268,71,1,"C:\Users\ULB-CO3\Documents\Pietro\bloch_law_objects\final\animate_swan_11s_071.tiff",0.0012148,0,0,70.9187511640797,0.0548251305777723,0.0419951046408734,0.5,"objects",50,"O_16_split_by_duration.5268",374028
"16",6,9491,48,1,"C:\Users\ULB-CO3\Documents\Pietro\bloch_law_objects\final\animate_ant_09s_048.tiff",0.3740421,0,0,48.6999405197531,0.0543829783820184,0.0441348686503982,0.5,"objects",50,"O_16_split_by_duration.9491",455568
"16",7,17100,45,1,"C:\Users\ULB-CO3\Documents\Pietro\bloch_law_objects\final\animate_spider_05s_045.tiff",0.8961168,0,0,44.2841316935826,0.0615258015504309,0.0566124927062005,0.5,"objects",50,"O_16_split_by_duration.17100",769500
"16",8,30808,28,0,"C:\Users\ULB-CO3\Documents\Pietro\bloch_law_objects\final\inanimate_light_switch_16s_028.tiff",0.3590729,0,1,27.2698057762912,0.0527726991369557,0.0613371982473488,0.5,"objects",50,"O_16_split_by_duration.30808",862624
"16",9,55505,24,1,"C:\Users\ULB-CO3\Documents\Pietro\bloch_law_objects\final\animate_blowfish_03s_024.tiff",0.576097,0,0,24.5628425839957,0.056845185524164,0.0660606916237019,0.5,"objects",50,"O_16_split_by_duration.55505",1332120
"16",10,1e+05,8,1,"C:\Users\ULB-CO3\Documents\Pietro\bloch_law_objects\final\animate_yak_14s_008.tiff",0.2690645,1,1,7.66278166629884,0.0521078366222329,0.0557695267419492,0.5,"objects",50,"O_16_split_by_duration.1e+05",8e+05
"17",4,2924,90,0,"C:\Users\ULB-CO3\Documents\Pietro\bloch_law_objects\final\inanimate_blimp_09s_090.tiff",0.1951317,0,1,89.266018018665,0.0537707999682561,0.0526340083369079,0.5,"objects",50,"O_17_split_by_duration.2924",263160
"17",5,5268,52,1,"C:\Users\ULB-CO3\Documents\Pietro\bloch_law_objects\final\animate_ostrich_10s_052.tiff",0.210045,0,0,58.0116344387131,0.0549495078325876,0.0505516283340787,0.5,"objects",50,"O_17_split_by_duration.5268",273936
"17",6,9491,47,1,"C:\Users\ULB-CO3\Documents\Pietro\bloch_law_objects\final\animate_panther_01b_047.tiff",0.4090399,1,1,46.3621950941997,0.0490478089316592,0.0479034731235013,0.5,"objects",50,"O_17_split_by_duration.9491",446077
"17",7,17100,36,1,"C:\Users\ULB-CO3\Documents\Pietro\bloch_law_objects\final\animate_bee_06s_036.tiff",0.5623012,1,1,35.1848817414061,0.0517260940848803,0.0645612413085816,0.5,"objects",50,"O_17_split_by_duration.17100",615600
"17",8,30808,8,0,"C:\Users\ULB-CO3\Documents\Pietro\bloch_law_objects\final\inanimate_diamond_05s_008.tiff",0.3881272,0,1,7.6206897707603,0.0526865916716734,0.0683791100558749,0.5,"objects",50,"O_17_split_by_duration.30808",246464
"17",9,55505,9,1,"C:\Users\ULB-CO3\Documents\Pietro\bloch_law_objects\final\animate_donkey_04s_009.tiff",0.0550497,0,0,8.87734056943215,0.0527113539047402,0.0670493887639976,0.5,"objects",50,"O_17_split_by_duration.55505",499545
"17",10,1e+05,3,0,"C:\Users\ULB-CO3\Documents\Pietro\bloch_law_objects\final\inanimate_crown_01b_003.tiff",0.1130489,0,1,2.32931681509907,0.0555665272738124,0.0776146988378573,0.5,"objects",50,"O_17_split_by_duration.1e+05",3e+05
